ACCELEROMETER X,ACCELEROMETER Y,ACCELEROMETER Z,GRAVITY X,GRAVITY Y,GRAVITY Z,LINEAR ACCELERATION X,LINEAR ACCELERATION Y,LINEAR ACCELERATION Z,GYROSCOPE X,GYROSCOPE Y,GYROSCOPE Z,MAGNETIC FIELD X,MAGNETIC FIELD Y,MAGNETIC FIELD Z,ORIENTATION Z,ORIENTATION X,ORIENTATION Y,ATMOSPHERIC PRESSURE (Pascal),LOCATION Latitude,LOCATION Longitude,LOCATION Speed,LOCATION ORIENTATION,FRAME
10.023912,-0.389175,-0.370377,9.78655,-0.433429,-0.453866,-0.215053,0.041905,-0.03897,-0.008896,-0.019836,0.00386,21.101,-17.3801,-0.1316,176.5326,2.5332,-92.6553,102043.92,-33.964302,18.472769,0,,1
10.017242,-0.382202,-0.248474,9.786642,-0.431335,-0.453834,-0.222181,0.062153,0.107115,0.006012,-0.053925,0.012375,21.101,-17.3801,-0.1316,176.5326,2.5332,-92.6553,102043.92,-33.964302,18.472769,0,,2
10.017242,-0.382202,-0.248474,9.786642,-0.431335,-0.453834,-0.222181,0.062153,0.107115,0.006012,-0.053925,0.012375,21.0133,-17.2922,-0.2171,176.5326,2.5332,-92.6553,102043.92,-33.964302,18.472769,0,,3
10.169892,-0.422562,-0.518677,9.786316,-0.432345,-0.459908,-0.110128,0.047465,0.063851,-0.003571,-0.080566,0.010254,21.0133,-17.2922,-0.2171,176.5326,2.5332,-92.6553,102043.92,-33.964302,18.472769,0,,4
10.294098,-0.4832,-0.526215,9.786316,-0.432345,-0.459908,-0.110128,0.047465,0.063851,-0.00145,-0.069916,-0.001465,20.9255,-17.2922,-0.3025,176.4871,2.5268,-92.6906,102043.92,-33.964302,18.472769,0,,5
10.294098,-0.4832,-0.526215,9.785576,-0.434297,-0.473598,0.02171,-0.033813,-0.059271,-0.00145,-0.069916,-0.001465,20.9255,-17.2922,-0.3025,176.4871,2.5268,-92.6906,102043.92,-33.964302,18.472769,0,,6
10.33719,-0.421387,-0.541733,9.785304,-0.434211,-0.479261,0.06858,0.00653,-0.029526,-0.00145,-0.061386,0.001724,20.9255,-17.1164,-0.2171,176.4871,2.5268,-92.6906,102043.92,-33.964302,18.472769,0,,7
10.398576,-0.426147,-0.618027,9.785304,-0.434211,-0.479261,0.06858,0.00653,-0.029526,-0.00145,-0.050735,-3.97E-04,20.9255,-17.1164,-0.2171,176.4871,2.5268,-92.6906,102043.92,-33.964302,18.472769,0,,8
10.398576,-0.426147,-0.618027,9.78458,-0.433907,-0.494088,0.158608,0.023072,-0.08926,-0.014221,-0.039017,0.001724,21.0135,-16.9405,-0.046,176.226,2.5359,-92.8908,102043.92,-33.964302,18.472769,0,,9
10.398286,-0.459686,-0.651306,9.78458,-0.433907,-0.494088,0.158608,0.023072,-0.08926,-0.015289,-0.016647,-0.001465,21.0135,-16.9405,-0.046,176.226,2.5359,-92.8908,102043.92,-33.964302,18.472769,0,,10
10.398286,-0.459686,-0.651306,9.78418,-0.434398,-0.501528,0.134063,-0.011394,-0.116481,-0.015289,-0.016647,0.015579,21.0135,-16.8526,-0.2171,176.226,2.5359,-92.8908,102043.92,-33.964302,18.472769,0,,11
10.30806,-0.454437,-0.616638,9.783978,-0.435801,-0.504245,0.047541,-0.001099,-0.036742,-0.020615,-0.002792,0.015579,21.1012,-16.8526,-0.2171,176.226,2.5359,-92.8908,102044.92,-33.964302,18.472769,0,,12
10.226196,-0.440536,-0.506393,9.783968,-0.436438,-0.503868,-0.017349,0.024321,0.038364,-0.014221,-0.00174,0.013443,21.1012,-16.9405,-0.2171,176.1501,2.5507,-92.9481,102044.92,-33.964302,18.472769,0,,13
10.226196,-0.440536,-0.506393,9.783968,-0.436438,-0.503868,-0.017349,0.024321,0.038364,-0.014221,-0.00174,0.013443,21.1012,-16.9405,-0.2171,176.1501,2.5507,-92.9481,102044.92,-33.964302,18.472769,0,,14
10.239014,-0.498001,-0.555817,9.783838,-0.439084,-0.504093,-0.013383,-0.008446,0.010535,-0.015289,-0.008133,0.019836,21.1012,-16.9405,-0.1316,176.1501,2.5507,-92.9481,102044.92,-33.964302,18.472769,0,,15
10.239014,-0.498001,-0.555817,9.783838,-0.439084,-0.504093,-0.013383,-0.008446,0.010535,-0.015289,-0.008133,0.019836,21.1012,-16.9405,-0.1316,176.1501,2.5507,-92.9481,102044.92,-33.964302,18.472769,0,,16
10.241852,-0.501495,-0.6185,9.783438,-0.4437,-0.507822,-0.003118,-0.034987,-0.092267,-0.022751,-0.002792,0.012375,21.1012,-16.9405,-0.1316,176.1501,2.5507,-92.9481,102044.92,-33.964302,18.472769,0,,17
10.246796,-0.477386,-0.573517,9.783438,-0.4437,-0.507822,0.00633,-0.003857,-0.049234,-0.021683,-6.71E-04,0.010254,21.1889,-16.8526,-0.4738,176.116,2.5932,-92.9713,102044.92,-33.964302,18.472769,0,,18
10.246796,-0.477386,-0.573517,9.783438,-0.4437,-0.507822,0.00633,-0.003857,-0.049234,-0.004639,-0.004929,0.00705,21.1889,-17.1164,-0.6449,176.116,2.5932,-92.9713,102044.92,-33.964302,18.472769,0,,19
10.207048,-0.498001,-0.482941,9.783252,-0.446818,-0.508658,-0.045045,-0.037024,0.02456,-0.004639,-0.004929,0.00705,21.1889,-17.1164,-0.6449,176.116,2.5932,-92.9713,102044.92,-33.964302,18.472769,0,,20
10.207048,-0.498001,-0.482941,9.783252,-0.446818,-0.508658,-0.045045,-0.037024,0.02456,6.87E-04,-0.009186,0.00386,21.1889,-17.1164,-0.6449,176.116,2.5932,-92.9713,102044.92,-33.964302,18.472769,0,,21
10.15509,-0.466507,-0.505173,9.783188,-0.447856,-0.508968,-0.08758,-0.006558,0.040108,6.87E-04,-0.009186,0.00386,21.101,-17.1164,-0.4738,176.1079,2.6115,-92.9763,102044.92,-33.964302,18.472769,0,,22
10.17598,-0.459686,-0.639679,9.78296,-0.44777,-0.513402,-0.097437,-0.010153,-0.080613,0.014542,-0.020905,-0.004669,21.2767,-16.8528,-0.4738,176.1079,2.6115,-92.9763,102044.92,-33.964302,18.472769,0,,23
10.166276,-0.476395,-0.665848,9.78296,-0.44777,-0.513402,-0.097437,-0.010153,-0.080613,0.016663,-0.024109,-0.008926,21.2767,-16.8528,-0.4738,176.1079,2.6115,-92.9763,102044.92,-33.964302,18.472769,0,,24
10.166276,-0.476395,-0.665848,9.782686,-0.446238,-0.519915,-0.081295,-0.002019,-0.107086,0.016663,-0.024109,-0.008926,21.2767,-16.8528,-0.4738,176.1079,2.6115,-92.9763,102044.92,-33.964302,18.472769,0,,25
10.11882,-0.440536,-0.609207,9.782596,-0.44508,-0.522622,-0.081295,-0.002019,-0.107086,0.013474,-0.02623,-0.007858,21.3644,-16.8528,-0.7305,179.5856,2.6081,-93.0422,102045.92,-33.964302,18.472769,0,,26
10.115022,-0.467178,-0.53479,9.782496,-0.444496,-0.524989,-0.125399,0.010773,-0.017103,0.008148,-0.029434,-0.004669,21.1887,-16.8528,-0.6449,179.5856,2.6081,-93.0422,102045.92,-33.964302,18.472769,0,,27
10.154328,-0.480423,-0.511169,9.782496,-0.444496,-0.524989,-0.125399,0.010773,-0.017103,0.004944,-0.031555,-0.00679,21.1887,-16.8528,-0.6449,179.5856,2.6081,-93.0422,102045.92,-33.964302,18.472769,0,,28
10.154328,-0.480423,-0.511169,9.782076,-0.445187,-0.532171,-0.06323,-0.025162,0.055088,0.004944,-0.031555,-0.00679,21.1887,-16.8528,-0.6449,179.5856,2.6081,-93.0422,102045.92,-33.964302,18.472769,0,,29
10.220964,-0.456787,-0.550598,9.781754,-0.444586,-0.538553,0.040719,0.014373,-0.049043,0.00708,-0.044342,-0.001465,21.5403,-16.8528,-0.7303,179.2954,2.6019,-93.114,102045.92,-33.964302,18.472769,0,,30
10.316056,-0.433197,-0.678085,9.781754,-0.444586,-0.538553,0.040719,0.014373,-0.049043,0.010269,-0.040085,-0.012115,21.5403,-16.9407,-0.8158,179.2954,2.6019,-93.114,102045.92,-33.964302,18.472769,0,,31
10.316056,-0.433197,-0.678085,9.781754,-0.444586,-0.538553,0.040719,0.014373,-0.049043,0.008148,-0.037949,-0.018509,21.5403,-16.9407,-0.8158,179.2954,2.6019,-93.114,102044.92,-33.964302,18.472769,0,,32
10.284668,-0.476822,-0.630402,9.78141,-0.441948,-0.546902,0.060297,-0.007514,-0.058895,-0.002502,-0.032623,-0.023834,21.3646,-16.9407,-0.7303,179.2954,2.6019,-93.114,102044.92,-33.964302,18.472769,0,,33
10.284668,-0.476822,-0.630402,9.78141,-0.441948,-0.546902,0.060297,-0.007514,-0.058895,-0.002502,-0.032623,-0.023834,21.3646,-16.9407,-0.7303,179.2954,2.6019,-93.114,102044.92,-33.964302,18.472769,0,,34
10.245346,-0.440536,-0.499084,9.781172,-0.437534,-0.554646,0.018699,-0.023154,0.067528,-0.011032,-0.029434,-0.021713,21.3646,-16.7648,-0.4738,175.7629,2.5572,-93.2455,102044.92,-33.964302,18.472769,0,,35
10.245346,-0.440536,-0.499084,9.781172,-0.437534,-0.554646,0.018699,-0.023154,0.067528,-0.011032,-0.029434,-0.021713,21.3646,-16.7648,-0.4738,175.7629,2.5572,-93.2455,102044.92,-33.964302,18.472769,0,,36
10.231018,-0.416702,-0.541489,9.781124,-0.431537,-0.560172,-4.37E-04,0.024893,0.025081,0.009216,-0.033691,-0.017441,21.4525,-16.6769,-0.3883,175.7629,2.5572,-93.2455,102044.92,-33.964302,18.472769,0,,37
10.231018,-0.416702,-0.541489,9.781066,-0.43,-0.562362,-4.76E-04,0.006316,0.033475,-0.005707,-0.029434,-0.016388,21.4525,-16.6769,-0.3883,175.7629,2.5572,-93.2455,102044.92,-33.964302,18.472769,0,,38
10.283508,-0.478836,-0.594269,9.781066,-0.43,-0.562362,-4.76E-04,0.006316,0.033475,-0.005707,-0.029434,-0.016388,21.4525,-16.6769,-0.3883,175.7629,2.5572,-93.2455,102044.92,-33.964302,18.472769,0,,39
10.226196,-0.459839,-0.612976,9.781066,-0.43,-0.562362,-4.76E-04,0.006316,0.033475,-0.0121,-0.02623,-0.013184,21.1889,-17.0284,-0.3027,175.7088,2.5131,-93.2906,102044.92,-33.964302,18.472769,0,,40
10.226196,-0.459839,-0.612976,9.781066,-0.43,-0.562362,-4.76E-04,0.006316,0.033475,-0.011032,-0.024109,-0.024902,21.1889,-17.0284,-0.3027,175.7088,2.5131,-93.2906,102044.92,-33.964302,18.472769,0,,41
10.187898,-0.459686,-0.589661,9.780796,-0.427143,-0.569184,0.019307,-0.067053,0.03931,-0.017426,-0.027298,-0.022766,21.0133,-16.9405,0.0395,175.7088,2.5131,-93.2906,102044.92,-33.964302,18.472769,0,,42
10.187898,-0.459686,-0.589661,9.780796,-0.427143,-0.569184,-0.036978,0.043725,0.03036,-0.007843,-0.029434,-0.021713,20.8374,-17.2043,-0.0462,175.6587,2.4964,-93.3305,102044.92,-33.964302,18.472769,0,,43
10.202866,-0.398056,-0.574982,9.780564,-0.41985,-0.578508,-0.036978,0.043725,0.03036,-0.007843,-0.029434,-0.021713,20.8374,-17.2043,-0.0462,175.6587,2.4964,-93.3305,102044.92,-33.964302,18.472769,0,,44
10.187898,-0.386963,-0.544434,9.780546,-0.41732,-0.580651,-0.010646,0.071664,-0.002885,-3.81E-04,-0.020905,-0.011063,20.6615,-17.5558,-0.1318,175.6587,2.4964,-93.3305,102044.92,-33.964302,18.472769,0,,45
10.187898,-0.386963,-0.544434,9.780546,-0.41732,-0.580651,-0.010646,0.071664,-0.002885,0.002823,-0.024109,0.001724,20.6615,-17.5558,-0.1318,175.6587,2.4964,-93.3305,102045.92,-33.964302,18.472769,0,,46
10.207048,-0.439377,-0.572647,9.78047,-0.414023,-0.58429,-0.035415,0.021996,0.054268,-0.0121,-0.025177,-0.00679,20.7493,-17.7315,-0.1318,175.8112,2.4197,-93.4188,102045.92,-33.964302,18.472769,0,,47
10.219956,-0.433868,-0.696121,9.78047,-0.414023,-0.58429,-0.035415,0.021996,0.054268,-0.0121,-0.025177,-0.00679,20.7493,-17.7315,-0.1318,175.8112,2.4197,-93.4188,102045.92,-33.964302,18.472769,0,,48
10.219956,-0.433868,-0.696121,9.780208,-0.412837,-0.589498,-0.015296,-0.005745,-0.076073,-0.021683,-0.010254,-0.014252,20.7493,-17.7315,-0.0462,175.8112,2.4197,-93.4188,102045.92,-33.964302,18.472769,0,,49
10.283662,-0.427475,-0.543182,9.780242,-0.411287,-0.590013,-0.017706,0.00666,0.016857,-0.03447,-0.01239,-0.018509,20.7493,-17.7315,-0.0462,175.8112,2.4197,-93.4188,102045.92,-33.964302,18.472769,0,,50
10.283662,-0.427475,-0.543182,9.780242,-0.411287,-0.590013,-0.017706,0.00666,0.016857,-0.03447,-0.01239,-0.018509,20.7493,-17.7315,-0.0462,175.8112,2.4197,-93.4188,102045.92,-33.964302,18.472769,0,,51
10.248246,-0.380173,-0.435089,9.780432,-0.407629,-0.589385,0.035172,0.005177,0.105842,-0.017426,-0.01239,-0.028107,20.837,-17.7315,-0.3883,175.7784,2.3823,-93.4486,102043.92,-33.964302,18.472769,0,,52
10.204422,-0.383072,-0.421753,9.780908,-0.400199,-0.586583,0.035172,0.005177,0.105842,-0.006775,-0.030502,-0.022766,20.837,-17.8194,-0.5594,175.7784,2.3823,-93.4486,102043.92,-33.964302,18.472769,0,,53
10.204422,-0.433289,-0.397949,9.780908,-0.400199,-0.586583,-0.024608,0.035575,0.191871,-0.006775,-0.030502,-0.014252,20.837,-17.8194,-0.5594,175.7784,2.3823,-93.4486,102043.92,-33.964302,18.472769,0,,54
10.204422,-0.433289,-0.397949,9.78097,-0.398774,-0.586526,-0.024608,0.035575,0.191871,0.001755,-0.037949,-0.014252,20.837,-17.8194,-0.5594,175.7784,2.3823,-93.4486,102043.92,-33.964302,18.472769,0,,55
10.209366,-0.462021,-0.498367,9.780818,-0.397805,-0.589715,-0.028795,-0.020959,0.1956,-0.0121,-0.047546,-0.007858,20.837,-17.7315,-0.7305,179.1344,2.3305,-93.4317,102043.92,-33.964302,18.472769,0,,56
10.245346,-0.498001,-0.557831,9.780818,-0.397805,-0.589715,-0.017394,-0.069504,0.057449,-0.036591,-0.035828,-0.011063,20.925,-17.8194,-0.7305,179.1344,2.3305,-93.4317,102043.92,-33.964306,18.472773,0,,57
10.245346,-0.498001,-0.557831,9.780512,-0.398324,-0.59442,-0.017394,-0.069504,0.057449,-0.050446,-0.032623,-0.005722,20.925,-17.8194,-0.7305,179.1344,2.3305,-93.4317,102043.92,-33.964306,18.472773,0,,58
10.25972,-0.421387,-0.531876,9.780382,-0.398282,-0.596559,0.015501,-0.039088,0.031796,-0.058975,-0.007065,-0.011063,21.0129,-17.7315,-0.7305,179.0624,2.3276,-93.4905,102044.92,-33.964306,18.472773,0,,59
10.25972,-0.421387,-0.531876,9.780382,-0.398282,-0.596559,0.015501,-0.039088,0.031796,-0.058975,-0.007065,-0.011063,21.0129,-17.7315,-0.7305,179.0624,2.3276,-93.4905,102044.92,-33.964306,18.472773,0,,60
10.222734,-0.440536,-0.379974,9.780436,-0.39724,-0.596384,-0.011181,-0.014824,0.177692,-0.054703,-0.016647,-0.00679,20.5734,-17.6437,-0.816,179.0624,2.3276,-93.4905,102044.92,-33.964306,18.472773,0,,61
10.239334,-0.427399,-0.547531,9.780482,-0.396982,-0.595801,0.024685,-0.006601,0.160105,-0.048309,-0.042221,0.00386,20.5734,-17.6437,-0.816,179.0624,2.3276,-93.4905,102044.92,-33.964306,18.472773,0,,62
10.239334,-0.427399,-0.547531,9.780482,-0.396982,-0.595801,0.024685,-0.006601,0.160105,-0.042984,-0.033691,0.013443,20.4857,-17.556,-1.2438,179.273,2.32,-93.486,102044.92,-33.964306,18.472773,0,,63
10.237718,-0.498001,-0.475311,9.780066,-0.398958,-0.601292,0.032599,-0.073141,0.069071,-0.042984,-0.033691,0.013443,20.4857,-17.556,-1.2438,179.273,2.32,-93.486,102044.92,-33.964306,18.472773,0,,64
10.26378,-0.442001,-0.438721,9.779986,-0.400489,-0.601545,0.020776,-0.075194,0.172207,-0.033401,-0.032623,0.00705,20.4857,-17.6439,-1.3294,179.273,2.32,-93.486,102044.92,-33.964306,18.472773,0,,65
10.26378,-0.442001,-0.438721,9.779926,-0.401988,-0.601533,0.015562,-0.038642,0.234443,-0.03447,-0.042221,-0.002533,20.4857,-17.6439,-1.3294,179.273,2.32,-93.486,102046.92,-33.964306,18.472773,0,,66
10.26378,-0.442001,-0.268951,9.779996,-0.402133,-0.600315,-0.039036,-0.025813,0.332057,-0.027008,-0.052872,-3.97E-04,20.31,-17.8198,-0.9872,179.2416,2.3501,-93.5125,102046.92,-33.964306,18.472773,0,,67
10.130432,-0.420959,-0.268951,9.779996,-0.402133,-0.600315,-0.039036,-0.025813,0.332057,-0.027008,-0.052872,-3.97E-04,20.31,-17.8198,-0.9872,179.2416,2.3501,-93.5125,102046.92,-33.964306,18.472773,0,,68
10.149582,-0.459686,-0.325973,9.780032,-0.401731,-0.599993,-0.109892,-0.004979,0.316898,-0.019547,-0.058197,-0.004669,20.3978,-17.7319,-1.1583,179.2416,2.3501,-93.5125,102046.92,-33.964306,18.472773,0,,69
10.235688,-0.498001,-0.459763,9.780032,-0.401731,-0.599993,-0.109892,-0.004979,0.316898,0.009216,-0.06778,-0.001465,20.3978,-17.7319,-1.1583,179.2416,2.3501,-93.5125,102046.92,-33.964306,18.472773,0,,70
10.235688,-0.498001,-0.459763,9.779774,-0.402502,-0.603674,-0.042582,-0.059373,0.240045,0.02092,-0.056061,-0.00679,20.3978,-17.7319,-1.1583,179.2416,2.3501,-93.5125,102046.92,-33.964306,18.472773,0,,71
10.31749,-0.531845,-0.362991,9.779774,-0.402502,-0.603674,0.087427,-0.122533,0.227598,0.012405,-0.059265,-0.01532,20.3978,-17.4683,-1.1583,179.1703,2.3523,-93.5322,102046.92,-33.964306,18.472773,0,,72
10.31749,-0.531845,-0.362991,9.779274,-0.405049,-0.610023,0.087427,-0.122533,0.227598,0.012405,-0.059265,-0.01532,20.3978,-17.4683,-1.1583,179.1703,2.3523,-93.5322,102047.92,-33.964306,18.472773,0,,73
10.31778,-0.521332,-0.440903,9.779156,-0.404978,-0.61195,0.102279,-0.072243,0.183479,0.008148,-0.049667,-0.024902,20.4855,-17.6441,-1.3294,179.1703,2.3523,-93.5322,102047.92,-33.964306,18.472773,0,,74
10.227204,-0.459686,-0.59108,9.77891,-0.405477,-0.615544,0.030426,-0.049857,0.131999,0.003876,-0.053925,-0.00679,20.4855,-17.6441,-1.3294,179.1703,2.3523,-93.5322,102047.92,-33.964306,18.472773,0,,75
10.227204,-0.459686,-0.59108,9.77891,-0.405477,-0.615544,0.030426,-0.049857,0.131999,-0.009964,-0.040085,-0.007858,20.5734,-17.732,-1.2438,178.9248,2.3697,-93.6018,102047.92,-33.964306,18.472773,0,,76
10.130432,-0.446594,-0.451981,9.778692,-0.405219,-0.619161,-0.027816,-0.026737,0.046492,-0.019547,-0.050735,-0.004669,20.5734,-17.732,-1.2438,178.9248,2.3697,-93.6018,102047.92,-33.964306,18.472773,0,,77
10.081162,-0.437805,-0.279465,9.778692,-0.405219,-0.619161,-0.094532,0.002156,0.26942,-0.013168,-0.081635,0.00705,20.8372,-17.6441,-0.9872,178.9248,2.3697,-93.6018,102047.92,-33.964306,18.472773,0,,78
10.081162,-0.437805,-0.279465,9.778406,-0.405158,-0.623704,-0.094532,0.002156,0.26942,-0.013168,-0.081635,0.00705,20.8372,-17.6441,-0.9872,178.9248,2.3697,-93.6018,102047.92,-33.964306,18.472773,0,,79
10.130432,-0.498001,-0.297241,9.778006,-0.406938,-0.628801,-0.094532,0.002156,0.26942,-0.007843,-0.113586,0.002792,20.7493,-17.6441,-0.5594,178.8661,2.3678,-93.6496,102047.92,-33.964306,18.472773,0,,80
10.130432,-0.498001,-0.297241,9.778006,-0.406938,-0.628801,-0.102947,-0.057371,0.370596,-0.007843,-0.113586,0.002792,20.7493,-17.6441,-0.5594,178.8661,2.3678,-93.6496,102047.92,-33.964306,18.472773,0,,81
10.177002,-0.593765,-0.585846,9.777572,-0.407861,-0.634946,-0.102947,-0.057371,0.370596,-0.015289,-0.131699,-0.011063,20.7493,-17.6441,-0.5594,178.8661,2.3678,-93.6496,102047.92,-33.964306,18.472773,0,,82
10.202424,-0.493393,-0.493027,9.777572,-0.408421,-0.660679,0.004489,-0.147348,0.11559,-0.039795,-0.116776,-0.020645,20.7493,-17.4683,-0.816,178.5127,2.3869,-93.8663,102047.92,-33.964306,18.472773,0,,83
10.202424,-0.493393,-0.493027,9.775842,-0.408421,-0.660679,-0.002869,-0.052567,0.11559,-0.039795,-0.116776,-0.020645,20.7493,-17.4683,-0.816,178.5127,2.3869,-93.8663,102047.92,-33.964306,18.472773,0,,84
10.202424,-0.493393,-0.493027,9.775166,-0.40579,-0.672219,-7.86E-04,-0.074473,0.353654,-0.04512,-0.127441,-0.028107,20.7493,-17.4683,-0.816,178.5127,2.3869,-93.8663,102047.92,-33.964306,18.472773,0,,85
10.190064,-0.502365,-0.26416,9.775166,-0.40579,-0.672219,-7.86E-04,-0.074473,0.353654,-0.037659,-0.13063,-0.028107,20.6615,-17.6441,-0.3027,178.5127,2.3869,-93.8663,102047.92,-33.964306,18.472773,0,,86
10.190064,-0.502365,-0.26416,9.774602,-0.403323,-0.681834,-0.007173,-0.101572,0.46863,-0.020615,-0.156204,-0.023834,20.6615,-17.6441,-0.3027,178.5127,2.3869,-93.8663,102047.92,-33.964306,18.472773,0,,87
10.207048,-0.55545,-0.364288,9.774602,-0.403323,-0.681834,-0.007173,-0.101572,0.46863,-0.020615,-0.156204,-0.023834,20.7495,-18.1715,-0.3027,175.1221,2.3571,-93.9902,102047.92,-33.964306,18.472773,0,,88
10.210526,-0.574615,-0.539276,9.773718,-0.401516,-0.695414,-0.001695,-0.130982,0.369707,-0.014221,-0.151932,-0.02916,20.7495,-18.1715,-0.3027,175.1221,2.3571,-93.9902,102047.92,-33.964306,18.472773,0,,89
10.210526,-0.574615,-0.539276,9.773718,-0.401516,-0.695414,-0.001695,-0.130982,0.369707,-0.004639,-0.13382,-0.022766,20.6617,-18.0836,-0.4738,175.1221,2.3571,-93.9902,102047.92,-33.964306,18.472773,0,,90
10.302812,-0.632065,-0.466721,9.772278,-0.401923,-0.715148,0.051539,-0.153698,0.097817,-3.81E-04,-0.128494,-0.030228,20.6617,-18.0836,-0.4738,175.1221,2.3571,-93.9902,102047.92,-33.964306,18.472773,0,,91
10.244172,-0.746994,-0.440903,9.77111,-0.404273,-0.72964,0.0666,-0.265878,0.283941,-0.014221,-0.146606,-0.036621,20.7497,-17.9077,-0.6449,178.1044,2.3627,-94.2705,102047.92,-33.964306,18.472773,0,,92
10.244172,-0.746994,-0.440903,9.77111,-0.404273,-0.72964,0.0666,-0.265878,0.283941,-0.014221,-0.146606,-0.036621,20.7497,-17.9077,-0.6449,178.1044,2.3627,-94.2705,102047.92,-33.964306,18.472773,0,,93
10.175064,-0.67038,-0.704864,9.769728,-0.403922,-0.748103,0.027748,-0.322572,0.326214,-0.017426,-0.134888,-0.064316,20.9253,-17.9956,-0.9871,178.1044,2.3627,-94.2705,102047.92,-33.964306,18.472773,0,,94
10.109528,-0.602478,-0.266769,9.768828,-0.400232,-0.761704,-0.08408,-0.22495,0.439825,-0.002502,-0.141281,-0.066452,20.9253,-17.9956,-0.9871,178.1044,2.3627,-94.2705,102047.92,-33.964306,18.472773,0,,95
10.109528,-0.602478,-0.266769,9.768828,-0.400232,-0.761704,-0.08408,-0.22495,0.439825,0.006012,-0.171112,-0.057922,21.0133,-18.0834,-1.0727,177.875,2.339,-94.4585,102047.92,-33.964306,18.472773,0,,96
10.053818,-0.576508,-0.308716,9.768072,-0.395406,-0.773824,-0.122765,-0.147018,0.522869,0.016663,-0.202011,-0.033432,21.0133,-18.0834,-1.0727,177.875,2.339,-94.4585,102047.92,-33.964306,18.472773,0,,97
10.053818,-0.576508,-0.308716,9.768072,-0.395406,-0.773824,-0.122765,-0.147018,0.522869,0.016663,-0.202011,-0.033432,20.8374,-18.347,-1.4149,177.875,2.339,-94.4585,102047.92,-33.964306,18.472773,0,,98
10.01056,-0.646881,-0.550873,9.766356,-0.396276,-0.794763,-0.156983,-0.197267,0.316101,0.025192,-0.184952,-0.016388,20.8374,-18.347,-1.4149,177.875,2.339,-94.4585,102047.92,-33.964306,18.472773,0,,99
10.015504,-0.785294,-0.287674,9.764426,-0.403385,-0.814651,-0.189838,-0.270231,0.320701,0.019867,-0.19455,-0.00679,20.8374,-18.4349,-1.586,180.9701,2.3159,-94.6523,102046.92,-33.964306,18.472773,0,,100
10.015504,-0.785294,-0.287674,9.764426,-0.403385,-0.814651,-0.189838,-0.270231,0.320701,0.019867,-0.19455,-0.00679,20.8374,-18.4349,-1.586,180.9701,2.3159,-94.6523,102046.92,-33.964306,18.472773,0,,101
9.924668,-0.895294,-0.26358,9.762442,-0.41373,-0.833043,-0.233733,-0.448225,0.61666,0.02626,-0.230759,-0.024902,20.9251,-18.6106,-2.0136,180.9701,2.3159,-94.6523,102046.92,-33.964306,18.472773,0,,102
9.924668,-0.895294,-0.26358,9.759978,-0.421504,-0.85764,-0.304911,-0.461605,0.601762,0.025192,-0.280838,-0.043015,20.9251,-18.6106,-2.0136,180.9701,2.3159,-94.6523,102046.92,-33.964306,18.472773,0,,103
9.85704,-0.828842,-0.385178,9.759978,-0.421504,-0.85764,-0.304911,-0.461605,0.601762,0.025192,-0.280838,-0.043015,21.1008,-18.5226,-2.0136,180.4884,2.4634,-95.0218,102046.92,-33.964306,18.472773,0,,104
9.847154,-0.827652,-0.498367,9.758482,-0.423455,-0.873569,-0.289461,-0.377612,0.495744,0.034775,-0.285095,-0.043015,21.1008,-18.5226,-2.0136,180.4884,2.4634,-95.0218,102046.92,-33.964306,18.472773,0,,105
9.847154,-0.827652,-0.498367,9.758482,-0.423455,-0.873569,-0.289461,-0.377612,0.495744,0.034775,-0.285095,-0.043015,21.1008,-18.5226,-2.0136,180.4884,2.4634,-95.0218,102046.92,-33.964306,18.472773,0,,106
9.97342,-0.957687,-0.463821,9.755062,-0.428701,-0.908501,-0.203978,-0.449983,0.400801,0.052887,-0.289352,-0.045151,21.2765,-18.6983,-1.8425,180.4884,2.4634,-95.0218,102045.92,-33.964306,18.472773,0,,107
9.923616,-1.048279,-0.461334,9.751432,-0.436308,-0.943183,-0.187683,-0.485214,0.482443,0.037964,-0.322372,-0.038757,21.1885,-18.8742,-1.8425,179.9015,2.55,-95.5246,102045.92,-33.964306,18.472773,0,,108
9.97374,-0.950775,-0.487701,9.747182,-0.444476,-0.982492,-0.18235,-0.555445,0.530259,0.049683,-0.337296,-0.047272,21.1885,-18.8742,-1.8425,179.9015,2.55,-95.5246,102045.92,-33.964306,18.472773,0,,109
9.97374,-0.950775,-0.487701,9.747182,-0.444476,-0.982492,-0.18235,-0.555445,0.530259,0.049683,-0.337296,-0.047272,21.2765,-18.6983,-1.7569,179.9015,2.55,-95.5246,102045.92,-33.964306,18.472773,0,,110
9.977204,-1.031387,-0.772354,9.74472,-0.447542,-1.005246,-0.213975,-0.450972,0.333944,0.049683,-0.327698,-0.047272,21.2765,-18.6983,-1.7569,179.9015,2.55,-95.5246,102045.92,-33.964306,18.472773,0,,111
10.050324,-0.936783,-1.010269,9.739542,-0.455005,-1.051034,-0.110841,-0.511108,0.219063,0.042236,-0.305328,-0.057922,21.2765,-18.5226,-1.9279,179.1577,2.6593,-96.1592,102045.92,-33.964306,18.472773,0,,112
10.050324,-0.936783,-1.010269,9.739542,-0.455005,-1.051034,-0.110841,-0.511108,0.219063,0.042236,-0.305328,-0.057922,21.2765,-18.5226,-1.9279,179.1577,2.6593,-96.1592,102045.92,-33.964306,18.472773,0,,113
10.050324,-0.936783,-1.010269,9.739542,-0.455005,-1.051034,-0.110841,-0.511108,0.219063,0.042236,-0.305328,-0.057922,21.2765,-18.5226,-1.9279,179.1577,2.6593,-96.1592,102045.92,-33.964306,18.472773,0,,114
10.22403,-0.940689,-0.928375,9.731892,-0.461827,-1.116871,0.07373,-0.474043,0.191199,0.036911,-0.29361,-0.054733,21.5403,-18.1711,-1.8423,179.1577,2.6593,-96.1592,102045.92,-33.964306,18.472773,0,,115
10.266954,-0.771042,-0.893234,9.727456,-0.463297,-1.154282,0.162116,-0.355961,0.337085,0.032639,-0.280838,-0.055801,21.5403,-18.0832,-1.8423,179.1577,2.6593,-96.1592,102045.92,-33.964306,18.472773,0,,116
10.266954,-0.771042,-0.893234,9.727456,-0.463297,-1.154282,0.162116,-0.355961,0.337085,0.032639,-0.268051,-0.043015,21.5403,-18.0832,-1.8423,179.1577,2.6593,-96.1592,102045.92,-33.964306,18.472773,0,,117
10.252884,-0.563004,-1.018982,9.722928,-0.461257,-1.192603,0.165784,-0.136021,0.183377,0.035843,-0.269119,-0.020645,21.3646,-17.9075,-2.1845,178.0731,2.6959,-96.9929,102045.92,-33.964306,18.472773,0,,118
10.222444,-0.507797,-0.977203,9.72077,-0.459886,-1.210598,0.101413,-0.009663,0.294006,0.033707,-0.287231,-0.008926,21.3646,-17.9075,-2.1845,178.0731,2.6959,-96.9929,102045.92,-33.964306,18.472773,0,,119
10.222444,-0.507797,-0.977203,9.716382,-0.457125,-1.24633,0.101413,-0.009663,0.294006,0.028381,-0.314926,0.008118,21.101,-17.9075,-2.3556,178.0731,2.6959,-96.9929,102044.92,-33.964306,18.472773,0,,120
10.09369,-0.367096,-0.92131,9.716382,-0.457125,-1.24633,0.012959,0.117916,0.388298,0.028381,-0.314926,0.008118,21.101,-17.9075,-2.3556,178.0731,2.6959,-96.9929,102044.92,-33.964306,18.472773,0,,121
10.168732,-0.443451,-0.999252,9.71095,-0.456747,-1.288116,0.012959,0.117916,0.388298,0.036911,-0.353271,0.023041,20.9253,-17.7319,-2.441,177.377,2.6695,-97.5559,102044.92,-33.964306,18.472773,0,,122
10.117172,-0.441986,-1.148132,9.707654,-0.457879,-1.312324,0.061678,0.017171,0.302506,0.0401,-0.336227,-0.004669,20.9253,-17.7319,-2.441,177.377,2.6695,-97.5559,102044.92,-33.964306,18.472773,0,,123
10.117172,-0.441986,-1.148132,9.707654,-0.457879,-1.312324,0.061678,0.017171,0.302506,0.027313,-0.315994,-0.012115,20.9253,-17.6439,-2.5267,177.377,2.6695,-97.5559,102044.92,-33.964306,18.472773,0,,124
10.150162,-0.381912,-1.207626,9.697796,-0.455397,-1.384112,0.039378,0.064861,0.234522,0.012405,-0.288284,-0.033432,20.9253,-17.6439,-2.5267,177.377,2.6695,-97.5559,102044.92,-33.964306,18.472773,0,,125
10.150162,-0.381912,-1.207626,9.697796,-0.455397,-1.384112,0.039378,0.064861,0.234522,0.012405,-0.288284,-0.033432,20.6617,-17.7319,-2.8688,180.0093,2.6616,-98.1226,102044.92,-33.964306,18.472773,0,,126
10.011216,-0.112793,-0.880005,9.692924,-0.444497,-1.421286,-0.024082,0.266032,0.473213,0.014542,-0.282959,-0.044083,20.6617,-17.7319,-2.8688,180.0093,2.6616,-98.1226,102045.92,-33.964306,18.472773,0,,127
10.011216,-0.112793,-0.880005,9.692924,-0.444497,-1.421286,-0.024082,0.266032,0.473213,0.057144,-0.296814,-0.060059,20.4859,-17.6439,-3.0399,180.0093,2.6616,-98.1226,102045.92,-33.964306,18.472773,0,,128
9.631562,0.192978,-0.843124,9.689302,-0.425794,-1.451379,-0.273184,0.493161,0.670085,0.076324,-0.297882,-0.052597,20.4859,-17.6439,-3.0399,180.0093,2.6616,-98.1226,102045.92,-33.964306,18.472773,0,,129
9.631562,0.192978,-0.843124,9.689302,-0.425794,-1.451379,-0.273184,0.493161,0.670085,0.12532,-0.308533,-0.050476,20.398,-17.8198,-3.1256,180.0138,2.4885,-98.5191,102045.92,-33.964306,18.472773,0,,130
9.421754,0.536301,-0.919739,9.683402,-0.387142,-1.500752,-0.594971,0.874257,0.663551,0.12532,-0.308533,-0.050476,20.398,-17.8198,-3.1256,180.0138,2.4885,-98.5191,102045.92,-33.964306,18.472773,0,,131
9.421754,0.536301,-0.919739,9.683402,-0.387142,-1.500752,-0.594971,0.874257,0.663551,0.12532,-0.308533,-0.050476,20.398,-17.8198,-3.1256,180.0138,2.4885,-98.5191,102045.92,-33.964306,18.472773,0,,132
9.41246,0.622192,-0.929596,9.68127,-0.372725,-1.518051,-0.592675,0.952507,0.673318,0.127457,-0.317047,-0.045151,20.5736,-17.9077,-3.2112,180.0138,2.4885,-98.5191,102046.92,-33.964306,18.472773,0,,133
9.41246,0.622192,-0.929596,9.68127,-0.372725,-1.518051,-0.592675,0.952507,0.673318,0.061401,-0.349014,-0.027039,20.5736,-17.9077,-3.2112,180.0138,2.4885,-98.5191,102046.92,-33.964306,18.472773,0,,134
9.99167,0.897293,-1.147232,9.671144,-0.307687,-1.595217,-0.092885,1.161575,0.542704,0.061401,-0.349014,-0.027039,20.5736,-17.9077,-3.2112,180.0138,2.4885,-98.5191,102046.92,-33.964306,18.472773,0,,135
9.99167,0.897293,-1.147232,9.671144,-0.307687,-1.595217,-0.092885,1.161575,0.542704,0.061401,-0.349014,-0.027039,20.5736,-17.9077,-3.2112,180.0138,2.4885,-98.5191,102046.92,-33.964306,18.472773,0,,136
10.418884,0.908859,-1.050781,9.668206,-0.290311,-1.61614,0.237628,1.218177,0.515062,0.006012,-0.357529,-0.013184,20.8372,-17.6439,-2.6125,178.3395,1.6964,-99.4898,102046.92,-33.964306,18.472773,0,,137
11.409364,0.862778,-1.15741,9.657884,-0.257723,-1.682036,1.273618,1.109434,0.686186,-0.023819,-0.382034,0.015579,20.8372,-17.6439,-2.6125,178.3395,1.6964,-99.4898,102046.92,-33.964306,18.472773,0,,138
11.409364,0.862778,-1.15741,9.657884,-0.257723,-1.682036,1.273618,1.109434,0.686186,-0.027008,-0.349014,0.018768,20.8372,-17.6439,-2.6125,178.3395,1.6964,-99.4898,102046.92,-33.964306,18.472773,0,,139
11.63469,0.839325,-1.313095,9.653034,-0.256335,-1.709856,1.521468,1.154507,0.55887,-0.033401,-0.328766,0.0177,20.925,-17.3801,-2.6981,178.3395,1.6964,-99.4898,102047.92,-33.964306,18.472773,0,,140
11.63469,0.839325,-1.313095,9.653034,-0.256335,-1.709856,1.521468,1.154507,0.55887,-0.061096,-0.252075,0.013443,20.925,-17.3801,-2.6981,178.3395,1.6964,-99.4898,102047.92,-33.964306,18.472773,0,,141
11.488312,0.769165,-1.520554,9.653034,-0.256335,-1.709856,1.549576,1.02814,0.361925,-0.080276,-0.228638,0.001724,20.925,-17.3801,-2.6981,178.3395,1.6964,-99.4898,102047.92,-33.964306,18.472773,0,,142
11.488312,0.769165,-1.520554,9.640924,-0.251281,-1.777599,1.549576,1.02814,0.361925,-0.080276,-0.228638,0.001724,21.1006,-17.4681,-2.527,177.0161,1.4683,-100.4469,102047.92,-33.964306,18.472773,0,,143
10.33342,0.840576,-0.909866,9.63403,-0.237529,-1.816435,0.64974,0.956218,0.761947,-0.107971,-0.128494,-0.030228,21.3642,-17.4681,-2.527,177.0161,1.4683,-100.4469,102047.92,-33.964306,18.472773,0,,144
10.022416,0.897766,-0.840668,9.63403,-0.237529,-1.816435,0.64974,0.956218,0.761947,-0.107971,-0.117844,-0.037689,21.3642,-17.4681,-2.527,177.0161,1.4683,-100.4469,102047.92,-33.964306,18.472773,0,,145
10.022416,0.897766,-0.840668,9.63403,-0.237529,-1.816435,0.64974,0.956218,0.761947,-0.107971,-0.117844,-0.037689,21.4521,-17.3801,-2.356,173.3384,1.3879,-100.6774,102047.92,-33.964306,18.472773,0,,146
9.741258,0.842758,-0.837891,9.631554,-0.223531,-1.83128,0.076043,1.132426,1.057623,-0.127151,-0.1008,-0.017441,21.4521,-17.3801,-2.356,173.3384,1.3879,-100.6774,102046.92,-33.964306,18.472773,0,,147
9.601808,0.628296,-0.789581,9.627834,-0.20757,-1.852597,-0.319188,0.934048,1.075149,-0.164429,-0.113586,-0.003601,21.1006,-17.2043,-2.6125,173.3384,1.3879,-100.6774,102046.92,-33.964306,18.472773,0,,148
9.601808,0.628296,-0.789581,9.627834,-0.20757,-1.852597,-0.319188,0.934048,1.075149,-0.216629,-0.116776,-0.004669,21.1006,-17.2043,-2.6125,173.3384,1.3879,-100.6774,102046.92,-33.964306,18.472773,0,,149
9.440598,0.600235,-0.516937,9.625016,-0.197512,-1.868277,-0.480403,0.831538,1.30088,-0.265625,-0.141281,0.008118,21.0127,-17.2043,-3.2112,176.3517,1.154,-100.9849,102046.92,-33.964306,18.472773,0,,150
9.440598,0.600235,-0.516937,9.625016,-0.197512,-1.868277,-0.480403,0.831538,1.30088,-0.265625,-0.141281,0.008118,21.0127,-17.2043,-3.2112,176.3517,1.154,-100.9849,102046.92,-33.964306,18.472773,0,,151
9.314362,0.542099,-0.353836,9.620914,-0.187824,-1.890276,-0.599731,0.746811,1.605201,-0.324219,-0.2052,0.0177,20.837,-17.1164,-3.5534,176.3517,1.154,-100.9849,102046.92,-33.964306,18.472773,0,,152
9.1438,0.538742,-0.564163,9.618054,-0.182871,-1.905256,-0.739939,0.754206,1.465665,-0.347656,-0.232895,0.021973,20.837,-17.1164,-3.5534,176.3517,1.154,-100.9849,102043.92,-33.964306,18.472773,0,,153
8.826112,0.623413,-0.576843,9.618054,-0.182871,-1.905256,-0.739939,0.754206,1.465665,-0.35405,-0.295746,0.020905,20.6614,-17.1164,-4.2377,179.4585,1.0685,-101.2048,102043.92,-33.964306,18.472773,0,,154
8.731324,0.748734,-0.74736,9.60701,-0.166792,-1.961619,-1.103708,0.796385,1.449289,-0.362564,-0.319183,0.02623,20.6614,-17.1164,-4.2377,179.4585,1.0685,-101.2048,102043.92,-33.964306,18.472773,0,,155
8.731324,0.748734,-0.74736,9.60701,-0.166792,-1.961619,-1.103708,0.796385,1.449289,-0.362564,-0.319183,0.02623,20.2219,-17.2043,-4.6654,179.4585,1.0685,-101.2048,102043.92,-33.964306,18.472773,0,,156
8.800186,0.776642,-0.717682,9.590518,-0.153497,-2.041767,-1.101027,0.926273,1.396441,-0.411575,-0.401215,0.075226,20.2219,-17.2043,-4.6654,179.4585,1.0685,-101.2048,102043.92,-33.964306,18.472773,0,,157
9.020676,0.784134,-0.402008,9.590518,-0.153497,-2.041767,-1.101027,0.926273,1.396441,-0.391327,-0.460861,0.098663,19.8704,-16.9405,-5.2643,182.4924,0.8969,-102.0185,102043.92,-33.964306,18.472773,0,,158
9.020676,0.784134,-0.402008,9.576608,-0.150549,-2.106257,-0.83959,0.929053,1.773781,-0.368958,-0.485367,0.112518,19.8704,-16.9405,-5.2643,182.4924,0.8969,-102.0185,102043.92,-33.964306,18.472773,0,,159
9.373994,0.718109,-0.508072,9.576608,-0.150549,-2.106257,-0.83959,0.929053,1.773781,-0.338074,-0.513062,0.110382,19.7826,-16.8526,-5.7775,182.4924,0.8969,-102.0185,102039.92,-33.964306,18.472773,0,,160
9.373994,0.718109,-0.508072,9.56041,-0.151205,-2.178551,-0.459103,0.85681,1.705441,-0.338074,-0.513062,0.110382,19.7826,-16.8526,-5.7775,182.4924,0.8969,-102.0185,102039.92,-33.964306,18.472773,0,,161
9.61734,0.684876,-0.685242,9.54178,-0.15344,-2.258602,-0.225003,0.837863,1.644845,-0.314636,-0.541824,0.11145,19.5189,-16.8526,-6.3763,184.8209,0.8835,-102.8369,102039.92,-33.964306,18.472773,0,,162
9.76651,0.65123,-0.822662,9.54178,-0.15344,-2.258602,-0.225003,0.837863,1.644845,-0.310364,-0.595093,0.110382,19.5189,-16.8526,-6.3763,184.8209,0.8835,-102.8369,102039.92,-33.964306,18.472773,0,,163
9.76651,0.65123,-0.822662,9.531438,-0.155157,-2.301742,-0.107028,0.815264,1.636708,-0.302917,-0.611069,0.113586,19.5189,-16.9405,-6.5474,184.8209,0.8835,-102.8369,102039.92,-33.964306,18.472773,0,,164
9.76651,0.664856,-0.829483,9.509358,-0.157429,-2.391178,-0.032172,0.798093,1.634727,-0.302917,-0.611069,0.113586,19.5189,-16.9405,-6.5474,184.8209,0.8835,-102.8369,102039.92,-33.964306,18.472773,0,,165
9.758668,0.712585,-0.804825,9.487328,-0.154295,-2.477339,-0.031347,0.875564,1.744916,-0.310364,-0.583374,0.079498,19.1673,-17.1164,-6.7184,187.3649,0.9198,-104.1147,102037.92,-33.964306,18.472773,0,,166
9.758668,0.712585,-0.804825,9.487328,-0.154295,-2.477339,-0.031347,0.875564,1.744916,-0.338074,-0.502411,0.041138,19.1673,-17.1164,-6.7184,187.3649,0.9198,-104.1147,102037.92,-33.964306,18.472773,0,,167
9.614288,0.689529,-0.762878,9.467032,-0.145341,-2.554322,-0.112359,0.829953,1.86604,-0.351913,-0.467255,0.028366,19.0794,-17.1164,-7.1463,187.3649,0.9198,-104.1147,102037.92,-33.964306,18.472773,0,,168
9.440904,0.708679,-0.729645,9.467032,-0.145341,-2.554322,-0.112359,0.829953,1.86604,-0.351913,-0.467255,0.028366,19.0794,-17.1164,-7.1463,187.3649,0.9198,-104.1147,102037.92,-33.964306,18.472773,0,,169
9.440904,0.708679,-0.729645,9.44894,-0.131528,-2.62119,-0.29456,0.843901,1.964052,-0.35405,-0.426773,0.032623,19.0794,-17.38,-7.0606,185.6888,0.7685,-105.5043,102037.92,-33.964306,18.472773,0,,170
9.372346,0.689529,-0.577988,9.44894,-0.131528,-2.62119,-0.29456,0.843901,1.964052,-0.35405,-0.426773,0.032623,19.0794,-17.38,-7.0606,185.6888,0.7685,-105.5043,102037.92,-33.964306,18.472773,0,,171
9.501266,0.620453,-0.363113,9.431958,-0.120388,-2.682174,-0.33337,0.810892,2.246364,-0.329544,-0.440628,0.088013,19.1673,-17.292,-7.3174,185.6888,0.7685,-105.5043,102037.92,-33.964306,18.472773,0,,172
9.664642,0.608841,-0.206985,9.413948,-0.119191,-2.744771,-0.143925,0.689834,2.576671,-0.300781,-0.482162,0.135956,19.1673,-17.292,-7.3174,185.6888,0.7685,-105.5043,102033.92,-33.964306,18.472773,0,,173
9.664642,0.608841,-0.206985,9.413948,-0.119191,-2.744771,-0.143925,0.689834,2.576671,-0.285873,-0.520523,0.184952,19.0794,-17.4679,-7.4028,184.7833,0.6964,-106.2548,102033.92,-33.964306,18.472773,0,,174
9.689896,0.658279,-0.522552,9.393202,-0.128253,-2.814554,-0.009068,0.827386,2.543708,-0.294388,-0.540756,0.215851,19.0794,-17.4679,-7.4028,184.7833,0.6964,-106.2548,102033.92,-33.964306,18.472773,0,,175
9.689896,0.658279,-0.522552,9.393202,-0.128253,-2.814554,-0.009068,0.827386,2.543708,-0.294388,-0.540756,0.215851,18.6399,-17.4679,-7.5739,184.7833,0.6964,-106.2548,102033.92,-33.964306,18.472773,0,,176
9.909866,0.581711,-0.742416,9.369574,-0.145232,-2.891434,0.176286,0.768227,2.273939,-0.301849,-0.558868,0.237152,18.6399,-17.4679,-7.5739,184.7833,0.6964,-106.2548,102033.92,-33.964306,18.472773,0,,177
9.921768,0.440537,-0.44989,9.34349,-0.163877,-2.973675,0.307517,0.658245,2.504637,-0.315704,-0.639832,0.235016,18.552,-17.38,-7.9161,186.9724,0.8486,-107.1501,102033.92,-33.964306,18.472773,0,,178
9.921768,0.440537,-0.44989,9.34349,-0.163877,-2.973675,0.307517,0.658245,2.504637,-0.315704,-0.639832,0.235016,18.552,-17.38,-7.9161,186.9724,0.8486,-107.1501,102033.92,-33.964306,18.472773,0,,179
9.905808,0.456192,-0.343384,9.31171,-0.183712,-3.07062,0.389921,0.648642,2.787499,-0.280548,-0.749542,0.25206,18.4641,-17.4679,-8.3439,186.9724,0.8486,-107.1501,102035.92,-33.964306,18.472773,0,,180
9.905808,0.456192,-0.343384,9.31171,-0.183712,-3.07062,0.389921,0.648642,2.787499,-0.280548,-0.749542,0.25206,18.4641,-17.4679,-8.3439,186.9724,0.8486,-107.1501,102035.92,-33.964306,18.472773,0,,181
10.059846,0.432465,-0.529602,9.27209,-0.209144,-3.186694,0.50384,0.643932,2.789982,-0.247513,-0.880569,0.291473,18.4641,-17.4679,-8.9428,189.1225,1.222,-108.9672,102035.92,-33.964306,18.472773,0,,182
10.059846,0.432465,-0.529602,9.27209,-0.209144,-3.186694,0.50384,0.643932,2.789982,-0.18573,-0.923187,0.308517,18.4641,-17.4679,-8.9428,189.1225,1.222,-108.9672,102035.92,-33.964306,18.472773,0,,183
10.50261,0.310074,-0.78566,9.201238,-0.259435,-3.382352,1.02054,0.58329,2.692224,-0.165497,-0.923187,0.308517,18.4641,-17.6437,-9.285,189.1225,1.222,-108.9672,102035.92,-33.964306,18.472773,0,,184
10.649446,0.325607,-0.717682,9.176564,-0.277579,-3.447319,1.15334,0.582588,2.787529,-0.104782,-0.916794,0.302139,18.4641,-17.6437,-9.285,189.1225,1.222,-108.9672,102035.92,-33.964306,18.472773,0,,185
10.649446,0.325607,-0.717682,9.176564,-0.277579,-3.447319,1.15334,0.582588,2.787529,-0.047256,-0.945557,0.302139,18.4641,-17.6437,-9.285,189.1225,1.222,-108.9672,102035.92,-33.964306,18.472773,0,,186
10.713166,0.295425,-0.59964,9.126054,-0.315258,-3.57577,1.304154,0.675697,3.037789,-0.047256,-0.945557,0.302139,18.2882,-17.4681,-9.7128,189.536,1.8422,-111.3962,102042.92,-33.964306,18.472773,0,,187
10.640946,0.19989,-0.630707,9.09952,-0.335432,-3.640967,1.345275,0.626423,3.143832,-0.030212,-0.992432,0.321304,18.2882,-17.2924,-9.7982,189.536,1.8422,-111.3962,102042.92,-33.964306,18.472773,0,,188
10.532654,0.066162,-0.776367,9.041606,-0.380203,-3.778253,1.251781,0.510544,3.133156,-0.011032,-1.019058,0.350067,18.2882,-17.2924,-9.7982,189.536,1.8422,-111.3962,102042.92,-33.964306,18.472773,0,,189
10.609544,-0.039185,-0.824402,9.011088,-0.40499,-3.847942,1.266806,0.471875,3.180928,0.011337,-1.005218,0.371368,18.2882,-17.2924,-9.7982,189.536,1.8422,-111.3962,102042.92,-33.964306,18.472773,0,,190
10.609544,-0.039185,-0.824402,9.011088,-0.40499,-3.847942,1.266806,0.471875,3.180928,0.011337,-1.005218,0.371368,18.2005,-17.4681,-10.055,187.5101,2.3668,-113.1236,102042.92,-33.964306,18.472773,0,,191
10.996368,-0.291779,-1.47345,8.981592,-0.452457,-3.911096,1.519991,0.244989,3.015917,0.051819,-0.959412,0.370316,18.2882,-17.6439,-10.3115,187.5101,2.3668,-113.1236,102042.92,-33.964306,18.472773,0,,192
11.507736,-0.716812,-2.161819,8.936696,-0.508258,-4.005938,2.139017,-0.030323,2.167503,0.077393,-0.856079,0.351135,18.2882,-17.6439,-10.3115,187.5101,2.3668,-113.1236,102042.92,-33.964306,18.472773,0,,193
11.507736,-0.716812,-2.161819,8.936696,-0.508258,-4.005938,2.139017,-0.030323,2.167503,0.083771,-0.763397,0.298935,18.2005,-17.556,-10.5682,188.9987,2.9708,-114.1446,102049.92,-33.964306,18.472773,0,,194
11.836548,-1.081451,-3.601379,8.881908,-0.563751,-4.118772,2.608052,-0.333076,1.318247,0.083771,-0.763397,0.298935,18.2005,-17.556,-10.5682,188.9987,2.9708,-114.1446,102049.92,-33.964306,18.472773,0,,195
11.836548,-1.081451,-3.601379,8.881908,-0.563751,-4.118772,2.608052,-0.333076,1.318247,0.077393,-0.672852,0.241409,18.2005,-17.556,-10.5682,188.9987,2.9708,-114.1446,102049.92,-33.964306,18.472773,0,,196
11.60495,-1.402405,-4.781555,8.833844,-0.608356,-4.214678,2.630117,-0.505486,0.086426,0.072052,-0.533295,0.193481,18.0248,-17.4681,-10.6537,188.9987,2.9708,-114.1446,102049.92,-33.964306,18.472773,0,,197
11.60495,-1.402405,-4.781555,8.833844,-0.608356,-4.214678,2.630117,-0.505486,0.086426,0.072052,-0.533295,0.193481,18.0248,-17.4681,-10.6537,188.9987,2.9708,-114.1446,102049.92,-33.964306,18.472773,0,,198
11.056764,-2.06337,-5.382538,8.785892,-0.650724,-4.307561,2.086156,-1.275423,-0.937496,0.13385,-0.289352,0.019836,18.0248,-17.4681,-10.4826,184.6432,3.5566,-115.5061,102049.92,-33.964306,18.472773,0,,199
11.056764,-2.06337,-5.382538,8.785892,-0.650724,-4.307561,2.086156,-1.275423,-0.937496,0.13385,-0.289352,0.019836,18.0248,-17.4681,-10.4826,184.6432,3.5566,-115.5061,102049.92,-33.964306,18.472773,0,,200
10.112428,-2.518127,-5.649215,8.777062,-0.658749,-4.324307,1.703903,-1.489547,-0.998241,0.275528,-0.13063,-0.102661,17.6733,-17.3801,-10.3115,184.6432,3.5566,-115.5061,102050.92,-33.964306,18.472773,0,,201
10.112428,-2.518127,-5.649215,8.763206,-0.677042,-4.34951,-0.06098,-2.248337,-1.923783,0.445969,-0.041153,-0.215591,17.4097,-17.3801,-10.1404,185.1255,3.9588,-116.3969,102050.92,-33.964306,18.472773,0,,202
8.16034,-3.394089,-6.944473,8.763206,-0.677042,-4.34951,-0.06098,-2.248337,-1.923783,0.482193,0.035553,-0.234756,17.4097,-17.3801,-10.1404,185.1255,3.9588,-116.3969,102050.92,-33.964306,18.472773,0,,203
7.340531,-3.733658,-6.787552,8.760672,-0.688498,-4.352816,-1.438355,-2.922831,-2.33435,0.465149,0.051529,-0.24968,17.4974,-17.5558,-10.3971,185.1255,3.9588,-116.3969,102050.92,-33.964306,18.472773,0,,204
6.539185,-3.924347,-6.079254,8.761558,-0.696278,-4.349793,-2.437214,-3.260379,-1.826799,0.396973,0.053665,-0.240082,17.4974,-17.5558,-10.3971,185.1255,3.9588,-116.3969,102050.92,-33.964306,18.472773,0,,205
6.539185,-3.924347,-6.079254,8.761558,-0.696278,-4.349793,-2.437214,-3.260379,-1.826799,0.396973,0.053665,-0.240082,17.4974,-17.5558,-10.3971,185.1255,3.9588,-116.3969,102050.92,-33.964306,18.472773,0,,206
7.255493,-3.365814,-5.258178,8.76015,-0.704496,-4.351305,-2.286257,-2.785024,-1.013282,0.350098,0.012115,-0.216644,17.3216,-17.2043,-10.3971,185.1317,4.0715,-116.4027,102045.92,-33.964306,18.472773,0,,207
7.255493,-3.365814,-5.258178,8.76015,-0.704496,-4.351305,-2.286257,-2.785024,-1.013282,0.350098,0.012115,-0.216644,17.3216,-17.2043,-10.3971,185.1317,4.0715,-116.4027,102045.92,-33.964306,18.472773,0,,208
8.430574,-2.833893,-4.893478,8.756874,-0.7134,-4.356445,-1.484466,-2.493924,-0.673657,0.338379,-0.124237,-0.036621,17.4095,-17.2922,-10.2261,185.1317,4.0715,-116.4027,102045.92,-33.964306,18.472773,0,,209
11.034104,-2.571823,-3.901611,8.743826,-0.750962,-4.376294,0.952727,-1.981204,0.353152,0.459808,-0.306396,0.143402,17.4095,-17.2922,-10.2261,185.1317,4.0715,-116.4027,102045.92,-33.964306,18.472773,0,,210
11.034104,-2.571823,-3.901611,8.743826,-0.750962,-4.376294,0.952727,-1.981204,0.353152,0.459808,-0.306396,0.143402,17.2337,-17.4681,-10.1404,184.9361,4.3918,-116.588,102045.92,-33.964306,18.472773,0,,211
14.664352,-3.007126,-3.713425,8.715116,-0.8268,-4.419677,3.797633,-1.69932,0.640377,0.78685,-0.641952,0.334091,17.2337,-17.4681,-10.1404,184.9361,4.3918,-116.588,102045.92,-33.964306,18.472773,0,,212
14.664352,-3.007126,-3.713425,8.715116,-0.8268,-4.419677,3.797633,-1.69932,0.640377,1.067017,-0.865662,0.26059,17.1457,-17.556,-10.3117,184.9361,4.3918,-116.588,102045.92,-33.964306,18.472773,0,,213
17.437958,-3.568527,-2.577103,8.715116,-0.8268,-4.419677,3.797633,-1.69932,0.640377,1.067017,-0.865662,0.26059,17.1457,-17.556,-10.3117,184.9361,4.3918,-116.588,102049.92,-33.964306,18.472773,0,,214
18.033615,-3.914596,-3.554809,8.634964,-1.003273,-4.538857,8.021559,-2.310591,1.241604,1.182068,-1.084045,0.141281,17.0578,-17.7317,-10.6539,186.5789,5.8719,-117.7281,102049.92,-33.964306,18.472773,0,,215
19.143738,-3.897842,-4.166336,8.634964,-1.003273,-4.538857,8.021559,-2.310591,1.241604,1.253433,-1.008408,-0.203873,17.0578,-17.7317,-10.6539,186.5789,5.8719,-117.7281,102049.92,-33.964306,18.472773,0,,216
19.143738,-3.897842,-4.166336,8.528696,-1.156188,-4.700529,9.801886,-2.578913,0.973322,1.256638,-0.933838,-0.295486,16.8819,-17.9953,-10.825,186.5789,5.8719,-117.7281,102049.92,-33.964306,18.472773,0,,217
19.376295,-3.888183,-3.764252,8.528696,-1.156188,-4.700529,9.801886,-2.578913,0.973322,1.256638,-0.933838,-0.295486,16.8819,-17.9953,-10.825,186.5789,5.8719,-117.7281,102049.92,-33.964306,18.472773,0,,218
20.646484,-3.675751,-3.716598,8.465686,-1.229506,-4.794879,11.529566,-2.507348,1.441432,1.279007,-0.487488,-0.626785,16.8819,-17.9953,-10.9961,185.2662,6.7708,-118.861,102049.92,-33.964306,18.472773,0,,219
20.387192,-2.758133,-3.328308,8.465686,-1.229506,-4.794879,11.529566,-2.507348,1.441432,1.259827,-0.033691,-0.820663,16.8819,-17.9953,-10.9961,185.2662,6.7708,-118.861,102053.92,-33.964306,18.472773,0,,220
20.387192,-2.758133,-3.328308,8.471358,-1.231727,-4.784281,11.64919,-1.766218,1.494393,1.259827,-0.033691,-0.820663,16.5304,-18.259,-11.1671,185.2662,6.7708,-118.861,102053.92,-33.964306,18.472773,0,,221
18.663145,-1.208847,-2.531509,8.51591,-1.207839,-4.71071,9.845676,-0.059833,2.331669,1.210831,0.343414,-0.854752,16.5304,-18.259,-11.1671,185.2662,6.7708,-118.861,102053.92,-33.964306,18.472773,0,,222
18.663145,-1.208847,-2.531509,8.51591,-1.207839,-4.71071,9.845676,-0.059833,2.331669,1.210831,0.343414,-0.854752,16.5304,-18.259,-11.1671,185.2662,6.7708,-118.861,102053.92,-33.964306,18.472773,0,,223
17.17276,-0.638992,-2.202591,8.547942,-1.193143,-4.656122,8.746842,0.335637,2.661707,1.17247,0.589493,-0.802551,16.5304,-18.5228,-11.3382,184.8776,7.0748,-118.9499,102053.92,-33.964306,18.472773,0,,224
12.367478,0.161499,-2.858597,8.547942,-1.193143,-4.656122,8.746842,0.335637,2.661707,1.093643,0.768448,-0.767395,16.5304,-18.5228,-11.3382,184.8776,7.0748,-118.9499,102053.92,-33.964306,18.472773,0,,225
12.367478,0.161499,-2.858597,8.661082,-1.146718,-4.454335,4.158011,1.183969,1.939752,1.016953,0.86113,-0.719452,16.5304,-18.5228,-11.3382,184.8776,7.0748,-118.9499,102053.92,-33.964306,18.472773,0,,226
8.939286,0.795303,-3.418701,8.661082,-1.146718,-4.454335,4.158011,1.183969,1.939752,1.016953,0.86113,-0.719452,16.5306,-18.6108,-10.7395,184.8776,7.0748,-118.9499,102053.92,-33.964306,18.472773,0,,227
5.681565,1.22757,-4.083572,8.786478,-1.097343,-4.21474,-1.625992,2.17871,0.891875,0.937058,1.039032,-0.61293,16.5306,-18.6108,-10.7395,184.8776,7.0748,-118.9499,102047.92,-33.964306,18.472773,0,,228
5.681565,1.22757,-4.083572,8.786478,-1.097343,-4.21474,-1.625992,2.17871,0.891875,0.937058,1.039032,-0.61293,16.7942,-18.8744,-10.3971,185.6959,6.4247,-115.6263,102047.92,-33.964306,18.472773,0,,229
3.735855,1.371857,-5.492111,8.786478,-1.097343,-4.21474,-1.625992,2.17871,0.891875,0.741043,1.146622,-0.396683,16.7942,-18.8744,-10.3971,185.6959,6.4247,-115.6263,102047.92,-33.964306,18.472773,0,,230
2.480011,0.861908,-5.546783,8.908078,-1.068635,-3.959111,-5.687335,2.488574,-1.297102,0.412949,1.124252,-0.225174,16.9699,-18.8744,-9.9693,185.6959,6.4247,-115.6263,102047.92,-33.964306,18.472773,0,,231
2.113129,0.861908,-5.156997,8.978168,-1.055314,-3.801213,-7.108627,1.975186,-1.417921,0.195633,1.100815,-0.167648,16.9699,-18.8744,-9.9693,185.6959,6.4247,-115.6263,102047.92,-33.964306,18.472773,0,,232
2.113129,0.861908,-5.156997,8.978168,-1.055314,-3.801213,-7.108627,1.975186,-1.417921,0.195633,1.100815,-0.167648,17.2337,-18.9623,-9.3704,185.6334,6.1777,-112.947,102047.92,-33.964306,18.472773,0,,233
0.823212,0.863937,-2.460144,8.978168,-1.055314,-3.801213,-7.108627,1.975186,-1.417921,-0.090927,1.064591,-0.228363,17.2337,-18.9623,-9.3704,185.6334,6.1777,-112.947,102036.92,-33.964306,18.472773,0,,234
0.823212,0.863937,-2.460144,9.076986,-1.001512,-3.57431,-8.791512,1.886925,1.420297,-0.232605,0.920792,-0.32637,17.4973,-19.138,-8.9426,185.6334,6.1777,-112.947,102036.92,-33.964306,18.472773,0,,235
-0.065491,0.396027,-0.984817,9.10549,-0.967862,-3.510513,-9.719268,1.167471,2.770983,-0.296524,0.812134,-0.391357,17.4973,-19.138,-8.9426,185.6334,6.1777,-112.947,102036.92,-33.964306,18.472773,0,,236
-0.065491,0.396027,-0.984817,9.10549,-0.967862,-3.510513,-9.719268,1.167471,2.770983,-0.359375,0.510666,-0.603348,17.4973,-19.138,-8.9426,185.6334,6.1777,-112.947,102036.92,-33.964306,18.472773,0,,237
0.356705,-0.405289,-1.92543,9.14923,-0.872958,-3.420514,-9.347888,0.420394,2.603765,-0.735413,0.421173,-0.72905,17.8488,-19.05,-8.2582,183.3374,5.664,-111.0836,102036.92,-33.964306,18.472773,0,,238
-0.5858,0.830215,-1.427078,9.18297,-0.735375,-3.361948,-10.244922,1.113924,1.683444,-0.878159,0.332764,-0.675781,18.1124,-19.05,-7.745,183.3374,5.664,-111.0836,102036.92,-33.964306,18.472773,0,,239
-0.5858,0.830215,-1.427078,9.18297,-0.735375,-3.361948,-10.244922,1.113924,1.683444,-0.878159,0.332764,-0.675781,18.1124,-19.05,-7.745,183.3374,5.664,-111.0836,102030.92,-33.964306,18.472773,0,,240
1.078537,1.32692,-0.721863,9.208336,-0.582571,-3.322281,-9.613892,1.803503,2.738838,-0.827026,0.334885,-0.549011,18.288,-18.8742,-7.8304,183.3374,5.664,-111.0836,102030.92,-33.964306,18.472773,0,,241
1.904007,1.32547,-1.311157,9.23205,-0.45138,-3.276571,-7.532087,1.810183,1.95295,-0.730087,0.394547,-0.480835,18.288,-18.8742,-7.8304,183.3374,5.664,-111.0836,102030.92,-33.964306,18.472773,0,,242
1.904007,1.32547,-1.311157,9.23205,-0.45138,-3.276571,-7.532087,1.810183,1.95295,-0.845139,0.386017,-0.376434,18.3758,-18.6983,-7.8304,184.8028,2.6381,-109.5404,102030.92,-33.964306,18.472773,0,,243
4.885193,1.174362,-5.819626,9.25329,-0.338895,-3.22989,-4.968575,1.518633,-1.583984,-0.845139,0.386017,-0.376434,18.3758,-18.6983,-7.8304,184.8028,2.6381,-109.5404,102030.92,-33.964306,18.472773,0,,244
4.885193,1.174362,-5.819626,9.25329,-0.338895,-3.22989,-4.968575,1.518633,-1.583984,-1.131683,0.393478,-0.285889,18.4637,-18.3468,-7.3172,184.8028,2.6381,-109.5404,102030.92,-33.964306,18.472773,0,,245
7.320893,1.44371,-8.056839,9.268292,-0.228224,-3.196419,-3.140548,1.563068,-4.715712,-1.649414,0.312515,-0.106934,18.4637,-18.3468,-7.3172,184.8028,2.6381,-109.5404,102030.92,-33.964306,18.472773,0,,246
7.320893,1.44371,-8.056839,9.268292,-0.228224,-3.196419,-3.140548,1.563068,-4.715712,-1.649414,0.312515,-0.106934,18.5516,-18.1711,-6.8895,181.3824,1.3335,-109.0281,102030.92,-33.964306,18.472773,0,,247
11.609864,2.002335,-4.666931,9.28213,-0.061555,-3.163649,-0.31932,1.662502,-3.496688,-1.907196,0.162323,-0.021713,18.5516,-18.1711,-6.8895,181.3824,1.3335,-109.0281,102024.94,-33.964306,18.472773,0,,248
15.263596,3.734955,-3.984314,9.28213,-0.061555,-3.163649,-0.31932,1.662502,-3.496688,-1.768722,-0.391617,-0.128235,18.6394,-17.7317,-7.1463,181.3824,1.3335,-109.0281,102024.94,-33.964306,18.472773,0,,249
15.263596,3.734955,-3.984314,9.27599,0.062752,-3.181581,4.878105,3.185892,-0.161247,-1.768722,-0.391617,-0.128235,18.6394,-17.7317,-7.1463,181.3824,1.3335,-109.0281,102024.94,-33.964306,18.472773,0,,250
16.790085,2.81398,-5.285309,9.26446,0.12326,-3.213251,5.980591,3.510201,-0.837233,-1.439545,-0.638763,-0.085617,18.7273,-17.2922,-7.403,181.5284,-0.3666,-108.9315,102024.94,-33.964306,18.472773,0,,251
16.88736,2.246689,-6.457412,9.231314,0.220502,-3.302216,7.355633,2.38411,-2.557621,-1.274429,-0.681366,0.057129,18.6396,-16.9407,-7.9163,181.5284,-0.3666,-108.9315,102024.94,-33.964306,18.472773,0,,252
16.88736,2.246689,-6.457412,9.231314,0.220502,-3.302216,7.355633,2.38411,-2.557621,-1.274429,-0.681366,0.057129,18.6396,-16.9407,-7.9163,181.5284,-0.3666,-108.9315,102024.94,-33.964306,18.472773,0,,253
16.818527,0.473602,-6.83995,9.212162,0.254891,-3.352836,7.342805,1.704285,-3.039663,-1.399078,-0.742096,0.22757,18.6396,-16.9407,-7.9163,181.5284,-0.3666,-108.9315,102040.92,-33.964302,18.472784,0.73,250.2,254
16.860107,-0.455231,-6.444183,9.172294,0.298549,-3.456919,7.279478,-0.260998,-3.166829,-1.719711,-0.61319,0.42038,18.7275,-16.5012,-8.3439,182.5518,-1.7446,-110.6508,102040.92,-33.964302,18.472784,0.73,250.2,255
16.860107,-0.455231,-6.444183,9.172294,0.298549,-3.456919,7.279478,-0.260998,-3.166829,-1.861389,-0.488556,0.532227,18.7275,-16.5012,-8.3439,182.5518,-1.7446,-110.6508,102040.92,-33.964302,18.472784,0.73,250.2,256
19.74118,-1.238022,-4.717376,9.133068,0.332502,-3.556249,9.334038,-1.581249,-1.575684,-1.861389,-0.488556,0.532227,18.4639,-16.3254,-8.8573,182.5518,-1.7446,-110.6508,102040.92,-33.964302,18.472784,0.73,250.2,257
19.74118,-1.238022,-4.717376,9.133068,0.332502,-3.556249,9.334038,-1.581249,-1.575684,-1.782562,-0.245682,0.627045,18.4639,-16.3254,-8.8573,182.5518,-1.7446,-110.6508,102040.92,-33.964302,18.472784,0.73,250.2,258
21.30545,-1.267517,-3.647873,9.125696,0.337641,-3.574639,11.76788,-1.615952,0.146875,-1.719711,-0.22438,0.619583,18.4639,-16.1495,-9.3708,186.2096,-1.9731,-111.3908,102040.92,-33.964302,18.472784,0.73,250.2,259
23.38385,-0.535004,-1.89743,9.124832,0.333265,-3.577258,13.618458,-1.127359,1.726808,-1.284027,-0.233963,0.539688,18.4639,-16.1495,-9.3708,186.2096,-1.9731,-111.3908,102040.92,-33.964302,18.472784,0.73,250.2,260
23.38385,-0.535004,-1.89743,9.124832,0.333265,-3.577258,13.618458,-1.127359,1.726808,-1.284027,-0.233963,0.539688,18.5518,-15.9737,-10.3119,186.2096,-1.9731,-111.3908,102059.92,-33.964302,18.472784,0.73,250.2,261
22.404404,0.221558,-0.832092,9.12279,0.31616,-3.584013,13.45244,-0.224565,2.563763,-0.956985,-0.300003,0.550339,18.5518,-15.9737,-10.3119,186.2096,-1.9731,-111.3908,102059.92,-33.964302,18.472784,0.73,250.2,262
22.404404,0.221558,-0.832092,9.12279,0.31616,-3.584013,13.45244,-0.224565,2.563763,-0.956985,-0.300003,0.550339,18.4639,-15.7978,-11.1673,192.3775,-1.8475,-111.4481,102059.92,-33.964302,18.472784,0.73,250.2,263
19.042664,-0.379013,-0.732254,9.119008,0.273353,-3.597134,10.635664,-0.418842,3.382504,-0.619293,-0.265915,0.599335,18.4639,-15.7978,-11.1673,192.3775,-1.8475,-111.4481,102059.92,-33.964302,18.472784,0.73,250.2,264
13.883668,-0.864975,-1.594025,9.119008,0.273353,-3.597134,10.635664,-0.418842,3.382504,-0.388138,-0.171112,0.566315,18.4639,-15.7099,-11.6806,192.3775,-1.8475,-111.4481,102059.92,-33.964302,18.472784,0.73,250.2,265
10.304856,-1.047363,-2.616562,9.127656,0.172621,-3.581408,2.696,-1.118138,1.459538,-0.276276,0.29335,0.625977,18.4639,-15.7099,-11.6806,192.3775,-1.8475,-111.4481,102059.92,-33.964302,18.472784,0.73,250.2,266
10.304856,-1.047363,-2.616562,9.127656,0.172621,-3.581408,2.696,-1.118138,1.459538,-0.276276,0.29335,0.625977,18.288,-15.5342,-12.0228,195.6835,-1.0086,-111.4235,102063.92,-33.964302,18.472784,0.73,250.2,267
10.304856,-1.047363,-2.616562,9.16935,0.071567,-3.476822,-2.815367,-1.432466,-0.442327,-0.128204,1.252075,0.799606,18.288,-15.5342,-12.0228,195.6835,-1.0086,-111.4235,102063.92,-33.964302,18.472784,0.73,250.2,268
4.520172,-1.732544,-4.428344,9.204776,0.011898,-3.382655,-5.114043,-1.660909,-0.842133,-0.103714,1.475784,0.797485,18.288,-15.5342,-12.1082,195.6835,-1.0086,-111.4235,102063.92,-33.964302,18.472784,0.73,250.2,269
1.160446,-3.11203,-2.675781,9.293538,-0.104181,-3.128847,-8.198406,-2.570072,0.199685,0.004944,1.906159,0.527969,18.288,-15.5342,-12.1082,195.6835,-1.0086,-111.4235,102063.92,-33.964302,18.472784,0.73,250.2,270
1.160446,-3.11203,-2.675781,9.293538,-0.104181,-3.128847,-8.198406,-2.570072,0.199685,0.004944,1.906159,0.527969,18.2001,-15.7099,-12.0228,199.637,0.6087,-108.6068,102063.92,-33.964302,18.472784,0.73,250.2,271
-2.901138,-1.966598,0.285645,9.38243,-0.174419,-2.847805,-11.366528,-2.239665,1.856698,-0.027008,1.759155,0.170044,18.2001,-15.7099,-12.0228,199.637,0.6087,-108.6068,102063.92,-33.964302,18.472784,0.73,250.2,272
-2.901138,-1.966598,0.285645,9.38243,-0.174419,-2.847805,-11.366528,-2.239665,1.856698,0.058212,1.402283,0.047531,18.5516,-15.8857,-11.6804,199.637,0.6087,-108.6068,102063.92,-33.964302,18.472784,0.73,250.2,273
-3.516235,-1.186371,-0.656815,9.45126,-0.196434,-2.608738,-12.948802,-0.897957,0.970799,0.036911,1.538635,0.04541,18.5516,-15.8857,-11.6804,199.637,0.6087,-108.6068,102044.92,-33.964302,18.472784,0.73,250.2,274
-3.516235,-1.186371,-0.656815,9.45126,-0.196434,-2.608738,-12.948802,-0.897957,0.970799,0.247833,1.024109,0.044342,18.6396,-15.8857,-11.167,199.6113,1.1478,-105.4306,102044.92,-33.964302,18.472784,0.73,250.2,275
-3.970672,-0.963745,1.029907,9.505116,-0.215835,-2.403458,-14.118388,-0.916542,3.800685,0.279785,0.285889,0.128494,18.6396,-15.8857,-11.167,199.6113,1.1478,-105.4306,102044.92,-33.964302,18.472784,0.73,250.2,276
-1.575745,-0.464447,0.315887,9.52313,-0.244586,-2.328214,-12.771342,-0.034648,2.412913,0.279785,0.285889,0.128494,18.6396,-16.0616,-10.4826,199.6113,1.1478,-105.4306,102044.92,-33.964302,18.472784,0.73,250.2,277
-0.800247,-0.958405,0.195648,9.52418,-0.26911,-2.321196,-11.477848,-0.177675,2.718881,0.277649,-0.147675,0.31279,18.6396,-16.0616,-10.4826,199.6113,1.1478,-105.4306,102044.92,-33.964302,18.472784,0.73,250.2,278
-0.800247,-0.958405,0.195648,9.52418,-0.26911,-2.321196,-11.477848,-0.177675,2.718881,0.277649,-0.147675,0.31279,18.8154,-15.9737,-9.7126,198.6883,1.5725,-103.6969,102044.92,-33.964302,18.472784,0.73,250.2,279
1.223114,-1.435364,-0.689301,9.506498,-0.376329,-2.378077,-8.712516,-0.969049,1.773679,0.677124,-0.27977,0.302139,18.8154,-15.9737,-9.7126,198.6883,1.5725,-103.6969,102044.92,-33.964302,18.472784,0.73,250.2,280
1.913376,-2.324158,-0.831833,9.506498,-0.376329,-2.378077,-8.712516,-0.969049,1.773679,0.911484,-0.27124,0.247803,18.9034,-16.0616,-9.4559,198.6883,1.5725,-103.6969,102038.92,-33.964302,18.472784,0.73,250.2,281
1.913376,-2.324158,-0.831833,9.492426,-0.457541,-2.41969,-7.739205,-1.960868,1.606772,1.059555,-0.39801,0.125305,18.9034,-16.0616,-9.4559,198.6883,1.5725,-103.6969,102038.92,-33.964302,18.472784,0.73,250.2,282
3.399429,-3.149551,-1.865158,9.492426,-0.457541,-2.41969,-7.739205,-1.960868,1.606772,1.039322,-0.493881,0.082687,19.0792,-16.2373,-9.1991,195.0121,2.6742,-104.3006,102038.92,-33.964302,18.472784,0.73,250.2,283
3.399429,-3.149551,-1.865158,9.473024,-0.531066,-2.479954,-6.044417,-2.625868,0.429798,1.039322,-0.493881,0.082687,19.0792,-16.2373,-9.1991,195.0121,2.6742,-104.3006,102038.92,-33.964302,18.472784,0.73,250.2,284
5.30951,-3.090851,-3.816711,9.443002,-0.59629,-2.577704,-3.723817,-2.141597,-2.252134,1.052109,-0.648346,0.058182,19.2549,-16.2373,-8.9426,195.0121,2.6742,-104.3006,102038.92,-33.964302,18.472784,0.73,250.2,285
5.30951,-3.090851,-3.816711,9.443002,-0.59629,-2.577704,-3.723817,-2.141597,-2.252134,1.204437,-0.855011,0.114639,19.2549,-16.2373,-8.9426,195.0121,2.6742,-104.3006,102038.92,-33.964302,18.472784,0.73,250.2,286
11.526628,-2.99115,-7.496902,9.402458,-0.671792,-2.704232,0.419555,-1.873954,-4.999839,1.142654,-0.379898,0.2052,19.2549,-16.3252,-8.7715,193.1518,3.928,-106.0457,102038.92,-33.964302,18.472784,0.73,250.2,287
11.526628,-2.99115,-7.496902,9.387584,-0.717033,-2.743997,2.915127,-2.527522,-4.396199,0.980728,-0.592957,0.147675,19.2549,-16.3252,-8.7715,193.1518,3.928,-106.0457,102037.92,-33.964302,18.472784,0.73,250.2,288
18.496643,-5.499542,-7.332702,9.357538,-0.797195,-2.823358,9.176024,-4.710448,-4.588075,0.980728,-0.592957,0.147675,19.2549,-16.3252,-8.7715,193.1518,3.928,-106.0457,102037.92,-33.964302,18.472784,0.73,250.2,289
26.454514,-6.581024,-11.012238,9.357538,-0.797195,-2.823358,9.176024,-4.710448,-4.588075,0.685654,-0.273376,-0.055801,19.4307,-16.3252,-8.6004,193.1518,3.928,-106.0457,102037.92,-33.964302,18.472784,0.73,250.2,290
27.791214,-4.904495,-8.906218,9.343422,-0.823107,-2.862406,14.535936,-5.798568,-8.303238,0.662216,0.182556,-0.131424,19.5187,-16.501,-8.6861,190.301,4.8147,-107.0327,102037.92,-33.964302,18.472784,0.73,250.2,291
27.791214,-4.904495,-8.906218,9.343422,-0.823107,-2.862406,14.535936,-5.798568,-8.303238,0.732529,0.517044,-0.239029,19.5187,-16.501,-8.6861,190.301,4.8147,-107.0327,102037.92,-33.964302,18.472784,0.73,250.2,292
28.391876,-2.322784,-6.853485,9.370694,-0.842974,-2.76584,18.75026,-2.513167,-5.214939,1.010559,0.698151,-0.233688,19.1671,-16.6769,-8.6861,190.301,4.8147,-107.0327,102037.92,-33.964302,18.472784,0.73,250.2,293
28.391876,-2.322784,-6.853485,9.388424,-0.846544,-2.703932,18.34901,-1.174675,-3.506386,1.334396,0.632095,-0.277374,19.1671,-16.6769,-8.6861,190.301,4.8147,-107.0327,102057.92,-33.964302,18.472784,0.73,250.2,294
26.754898,-1.084137,-3.585403,9.388424,-0.846544,-2.703932,18.34901,-1.174675,-3.506386,1.334396,0.632095,-0.277374,19.1671,-16.6769,-8.6861,190.301,4.8147,-107.0327,102057.92,-33.964302,18.472784,0.73,250.2,295
21.66092,-0.604217,-2.92215,9.43162,-0.845751,-2.549442,12.874724,0.135236,-0.323465,1.794586,0.186813,-0.629974,18.9035,-17.0286,-8.6861,192.6168,4.9521,-106.0668,102057.92,-33.964302,18.472784,0.73,250.2,296
18.96199,-0.1306,-3.225128,9.43162,-0.845751,-2.549442,12.874724,0.135236,-0.323465,1.789261,0.182556,-0.782303,18.8156,-17.4681,-8.3439,192.6168,4.9521,-106.0668,102057.92,-33.964302,18.472784,0.73,250.2,297
18.96199,-0.1306,-3.225128,9.45167,-0.801024,-2.488911,8.40861,1.018883,-0.533004,1.569824,0.31572,-0.698151,18.8156,-17.4681,-8.3439,192.6168,4.9521,-106.0668,102057.92,-33.964302,18.472784,0.73,250.2,298
16.592697,1.274216,-2.645431,9.474164,-0.746969,-2.419225,6.439232,2.041669,-0.161055,1.569824,0.31572,-0.698151,18.4641,-17.7319,-8.0873,191.3239,4.3684,-104.3244,102057.92,-33.964302,18.472784,0.73,250.2,299
14.871384,1.731216,-2.045013,9.474164,-0.746969,-2.419225,6.439232,2.041669,-0.161055,1.341858,0.31572,-0.406265,18.4641,-17.7319,-8.0873,191.3239,4.3684,-104.3244,102057.92,-33.964302,18.472784,0.73,250.2,300
14.871384,1.731216,-2.045013,9.4936,-0.7271,-2.348036,4.271656,2.431368,0.638154,1.220413,0.273102,-0.149536,18.6399,-18.1713,-7.8306,191.3239,4.3684,-104.3244,102063.92,-33.964302,18.472784,0.73,250.2,301
13.4086,0.900223,-2.465805,9.4936,-0.7271,-2.348036,4.271656,2.431368,0.638154,1.220413,0.273102,-0.149536,18.6399,-18.1713,-7.8306,191.3239,4.3684,-104.3244,102063.92,-33.964302,18.472784,0.73,250.2,302
12.877686,1.021423,-3.1324,9.50836,-0.74011,-2.283357,3.038461,1.735969,-0.309181,1.121338,0.330627,-0.128235,18.7279,-18.3472,-7.4884,188.2074,4.3282,-103.5034,102063.92,-33.964302,18.472784,0.73,250.2,303
9.450546,1.274063,-4.853714,9.527688,-0.739566,-2.201502,0.692192,1.777086,-2.07958,0.771942,0.768448,-0.2827,18.7279,-18.3472,-7.4884,188.2074,4.3282,-103.5034,102063.92,-33.964302,18.472784,0.73,250.2,304
8.00206,1.593521,-4.896133,9.527688,-0.739566,-2.201502,0.692192,1.777086,-2.07958,0.615341,1.173248,-0.337021,18.4641,-18.4351,-6.9752,188.2074,4.3282,-103.5034,102063.92,-33.964302,18.472784,0.73,250.2,305
8.00206,1.593521,-4.896133,9.56381,-0.707723,-2.050132,-3.979729,2.64425,-1.923284,0.615341,1.173248,-0.337021,18.4641,-18.4351,-6.9752,188.2074,4.3282,-103.5034,102063.92,-33.964302,18.472784,0.73,250.2,306
2.865799,2.098114,-2.934814,9.56381,-0.707723,-2.050132,-3.979729,2.64425,-1.923284,0.556747,1.48111,-0.266724,18.3762,-18.4351,-6.2908,187.1926,4.1385,-102.099,102063.92,-33.964302,18.472784,0.73,250.2,307
2.865799,2.098114,-2.934814,9.611858,-0.671785,-1.825185,-9.068764,2.526737,-0.661191,0.556747,1.48111,-0.266724,18.3762,-18.4351,-6.2908,187.1926,4.1385,-102.099,102058.92,-33.964302,18.472784,0.73,250.2,308
-2.089279,1.044952,-0.973587,9.657122,-0.638509,-1.581997,-9.068764,2.526737,-0.661191,0.410812,1.573792,-0.266724,18.8156,-18.4351,-5.863,187.1926,4.1385,-102.099,102058.92,-33.964302,18.472784,0.73,250.2,309
-3.630142,0.489273,-1.699814,9.657122,-0.638509,-1.581997,-12.981446,1.40755,1.35932,0.487518,1.239304,-0.331696,18.8156,-18.4351,-5.863,187.1926,4.1385,-102.099,102058.92,-33.964302,18.472784,0.73,250.2,310
-3.630142,0.489273,-1.699814,9.68944,-0.596506,-1.389002,-14.529904,1.386219,-0.583238,-0.007843,0.902679,-0.302933,19.2551,-18.4351,-5.5208,190.9448,3.4873,-98.1579,102058.92,-33.964302,18.472784,0.73,250.2,311
-3.842728,0.944183,-2.982086,9.68944,-0.596506,-1.389002,-14.529904,1.386219,-0.583238,-0.233673,0.83876,-0.244354,19.2551,-18.4351,-5.5208,190.9448,3.4873,-98.1579,102058.92,-33.964302,18.472784,0.73,250.2,312
-3.842728,0.944183,-2.982086,9.71114,-0.547892,-1.250596,-13.95068,1.39478,-1.339148,-0.471222,0.325302,-0.211319,19.5189,-17.9956,-4.9221,190.9448,3.4873,-98.1579,102058.92,-33.964302,18.472784,0.73,250.2,313
-1.314239,-0.83429,-0.239105,9.71114,-0.547892,-1.250596,-11.974308,-0.286411,1.613655,-0.471222,0.325302,-0.211319,19.5189,-17.9956,-4.9221,190.9448,3.4873,-98.1579,102054.92,-33.964302,18.472784,0.73,250.2,314
-1.314239,-0.83429,-0.239105,9.71114,-0.547892,-1.250596,-11.974308,-0.286411,1.613655,-0.471222,0.325302,-0.211319,19.5189,-17.9956,-4.9221,190.9448,3.4873,-98.1579,102054.92,-33.964302,18.472784,0.73,250.2,315
0.320877,-0.661606,-1.440765,9.722626,-0.4761,-1.189239,-10.290008,-0.285168,-0.031934,-0.666168,-0.068848,-0.362595,20.134,-17.9956,-4.3232,185.1861,2.7827,-96.9736,102054.92,-33.964302,18.472784,0.73,250.2,316
1.612183,0.170532,-0.086197,9.722626,-0.4761,-1.189239,-10.290008,-0.285168,-0.031934,-0.8004,-0.008133,-0.40094,20.134,-17.9956,-4.3232,185.1861,2.7827,-96.9736,102054.92,-33.964302,18.472784,0.73,250.2,317
2.009293,0.74263,-0.928436,9.726266,-0.357322,-1.201024,-8.408462,0.584464,1.004604,-0.780151,-0.002792,-0.425446,20.2219,-17.9956,-3.8099,185.1861,2.7827,-96.9736,102054.92,-33.964302,18.472784,0.73,250.2,318
2.009293,0.74263,-0.928436,9.726266,-0.357322,-1.201024,-8.408462,0.584464,1.004604,-0.63208,0.162323,-0.421188,20.2219,-17.9956,-3.8099,185.1861,2.7827,-96.9736,102054.92,-33.964302,18.472784,0.73,250.2,319
1.691803,2.07991,-2.151367,9.73004,-0.269756,-1.193297,-8.144809,1.623997,-0.143077,-0.63208,0.162323,-0.421188,20.3098,-17.9956,-3.4678,181.784,1.5763,-96.9919,102054.92,-33.964302,18.472784,0.73,250.2,320
1.691803,2.07991,-2.151367,9.73004,-0.269756,-1.193297,-8.144809,1.623997,-0.143077,-0.583084,0.203857,-0.280563,20.3098,-17.9956,-3.4678,181.784,1.5763,-96.9919,102058.92,-33.964302,18.472784,0.73,250.2,321
2.542404,2.213608,-1.881454,9.73566,-0.167297,-1.165913,-7.791282,2.622535,-0.994174,-0.81105,0.05899,-0.06752,20.6614,-17.9956,-3.2112,181.784,1.5763,-96.9919,102058.92,-33.964302,18.472784,0.73,250.2,322
2.542404,2.213608,-1.881454,9.73566,-0.167297,-1.165913,-7.791282,2.622535,-0.994174,-0.81105,0.05899,-0.06752,20.6614,-17.9956,-3.2112,181.784,1.5763,-96.9919,102058.92,-33.964302,18.472784,0.73,250.2,323
4.357041,1.1913,-1.849838,9.735832,-0.149778,-1.166856,-6.627152,1.866455,-0.473518,-1.543945,-0.905075,0.002792,20.9251,-18.0836,-3.1256,181.5547,0.8751,-96.8344,102058.92,-33.964302,18.472784,0.73,250.2,324
10.317764,0.121536,-6.697052,9.735832,-0.149778,-1.166856,-6.627152,1.866455,-0.473518,-1.543945,-0.905075,0.002792,20.9251,-18.0836,-3.1256,181.5547,0.8751,-96.8344,102058.92,-33.964302,18.472784,0.73,250.2,325
13.099808,0.572266,-5.629181,9.716856,-0.109227,-1.319536,-0.937339,0.058891,-4.082053,-1.870987,-1.065933,-0.019577,20.7493,-17.9077,-2.9545,181.5547,0.8751,-96.8344,102058.92,-33.964302,18.472784,0.73,250.2,326
13.099808,0.572266,-5.629181,9.691822,-0.063418,-1.494979,2.783574,0.512969,-5.913593,-2.089355,-0.741028,0.010254,20.7493,-17.9077,-2.9545,181.5547,0.8751,-96.8344,102058.92,-33.964302,18.472784,0.73,250.2,327
17.344116,1.828659,-5.952942,9.670698,-0.009142,-1.627243,9.015758,1.744413,-4.67602,-1.993484,-0.361786,0.081619,20.6614,-17.6439,-2.869,179.2415,0.3705,-98.7688,102065.92,-33.964302,18.472784,0.73,250.2,328
17.344116,1.828659,-5.952942,9.670698,-0.009142,-1.627243,9.015758,1.744413,-4.67602,-1.993484,-0.361786,0.081619,20.6614,-17.6439,-2.869,179.2415,0.3705,-98.7688,102065.92,-33.964302,18.472784,0.73,250.2,329
25.549072,1.46785,-5.422577,9.66624,0.014497,-1.653483,13.564654,1.461993,-4.534818,-1.77298,0.054718,0.068832,20.837,-17.9077,-3.1256,179.2415,0.3705,-98.7688,102065.92,-33.964302,18.472784,0.73,250.2,330
30.095886,2.044205,-3.126312,9.66624,0.014497,-1.653483,13.564654,1.461993,-4.534818,-0.854721,0.096268,0.018768,20.837,-17.9077,-3.1256,179.2415,0.3705,-98.7688,102065.92,-33.964302,18.472784,0.73,250.2,331
30.095886,2.044205,-3.126312,9.673806,0.069271,-1.60719,19.892834,1.88675,-1.494775,-0.796127,-0.285095,0.044342,20.5734,-17.8198,-3.4678,178.4778,-0.4047,-99.4329,102065.92,-33.964302,18.472784,0.73,250.2,332
29.528152,1.386108,-3.3181,9.66455,0.083953,-1.661268,19.892834,1.88675,-1.494775,-0.796127,-0.285095,0.044342,20.5734,-17.8198,-3.4678,178.4778,-0.4047,-99.4329,102065.92,-33.964302,18.472784,0.73,250.2,333
23.60942,-0.598343,-4.643539,9.66455,0.083953,-1.661268,13.284592,-0.653495,-2.877999,-1.367111,-0.622787,0.192413,20.6612,-17.6439,-3.8099,178.4778,-0.4047,-99.4329,102065.92,-33.964302,18.472784,0.73,250.2,334
23.60942,-0.598343,-4.643539,9.64817,0.085866,-1.753801,13.284592,-0.653495,-2.877999,-1.752731,-0.403336,0.374573,20.6612,-17.6439,-3.8099,178.4778,-0.4047,-99.4329,102094.88,-33.964302,18.472784,0.73,250.2,335
17.975067,-1.741989,-2.793915,9.64817,0.085866,-1.753801,8.273392,-1.524516,-1.410128,-1.752731,-0.403336,0.374573,20.6612,-17.6439,-3.8099,178.4778,-0.4047,-99.4329,102094.88,-33.964302,18.472784,0.73,250.2,336
17.975067,-1.741989,-2.793915,9.64817,0.085866,-1.753801,8.273392,-1.524516,-1.410128,-1.752731,-0.403336,0.374573,20.6612,-17.6439,-3.8099,178.4778,-0.4047,-99.4329,102094.88,-33.964302,18.472784,0.73,250.2,337
16.413683,-1.293091,-1.879425,9.638664,0.067844,-1.806089,6.682336,-1.583567,-0.445134,-1.625976,0.013184,0.558868,20.3096,-17.3801,-4.4941,180.8292,-0.3964,-100.613,102094.88,-33.964302,18.472784,0.73,250.2,338
16.413683,-1.293091,-1.879425,9.638664,0.067844,-1.806089,6.682336,-1.583567,-0.445134,-1.625976,0.013184,0.558868,20.3096,-17.3801,-4.4941,180.8292,-0.3964,-100.613,102094.88,-33.964302,18.472784,0.73,250.2,339
15.367188,-1.608475,0.308273,9.64136,-0.060655,-1.791898,5.29835,-1.535587,2.257107,-0.821701,-0.138092,0.602539,20.1338,-17.2922,-4.8363,180.8292,-0.3964,-100.613,102094.88,-33.964302,18.472784,0.73,250.2,340
13.553224,-2.1996,-0.007217,9.64136,-0.060655,-1.791898,5.29835,-1.535587,2.257107,-0.370026,-0.499207,0.474701,20.1338,-17.2922,-4.8363,180.8292,-0.3964,-100.613,102094.88,-33.964302,18.472784,0.73,250.2,341
13.553224,-2.1996,-0.007217,9.630582,-0.135404,-1.844976,3.379601,-2.050124,1.970748,-0.215561,-0.563126,0.416122,20.1338,-17.3801,-5.3495,180.8292,-0.3964,-100.613,102087.9,-33.964302,18.472784,0.73,250.2,342
11.780258,-2.455154,-1.259262,9.615734,-0.194235,-1.915808,0.350715,-2.428625,-0.10739,0.024124,-0.317047,0.253128,20.1338,-17.3801,-5.3495,180.8292,-0.3964,-100.613,102087.9,-33.964302,18.472784,0.73,250.2,343
7.328812,-2.330566,-3.000412,9.615734,-0.194235,-1.915808,0.350715,-2.428625,-0.10739,0.045425,0.341278,0.220108,20.1338,-17.2922,-5.6917,186.7959,1.1349,-101.2679,102087.9,-33.964302,18.472784,0.73,250.2,344
7.328812,-2.330566,-1.679199,9.61666,-0.240767,-1.905854,-1.492242,-2.516454,-0.223139,0.034775,0.87178,0.320236,20.1338,-17.2922,-5.6917,186.7959,1.1349,-101.2679,102087.9,-33.964302,18.472784,0.73,250.2,345
3.52272,-1.353821,-1.679199,9.61666,-0.240767,-1.905854,-1.492242,-2.516454,-0.223139,0.034775,0.87178,0.320236,19.6943,-17.1164,-6.1195,186.7959,1.1349,-101.2679,102087.9,-33.964302,18.472784,0.73,250.2,346
1.269272,-0.975967,-0.661163,9.640522,-0.29977,-1.772251,-7.600122,-0.868451,0.674208,0.105087,1.290436,0.447006,19.8702,-16.9405,-6.3763,187.9524,1.7517,-100.4166,102087.9,-33.964302,18.472784,0.73,250.2,347
1.269272,-0.975967,-0.661163,9.640522,-0.29977,-1.772251,-7.600122,-0.868451,0.674208,0.105087,1.290436,0.447006,19.8702,-16.9405,-6.3763,187.9524,1.7517,-100.4166,102080.9,-33.964302,18.472784,0.73,250.2,348
-1.926987,-0.253769,-0.040543,9.674512,-0.378275,-1.559212,-11.25806,-0.064721,1.559677,0.126389,1.534378,0.496017,19.8702,-16.9405,-6.3763,187.9524,1.7517,-100.4166,102080.9,-33.964302,18.472784,0.73,250.2,349
-1.926987,-0.253769,-0.040543,9.674512,-0.378275,-1.559212,-11.25806,-0.064721,1.559677,0.126389,1.534378,0.496017,19.5187,-16.9405,-6.633,187.9524,1.7517,-100.4166,102080.9,-33.964302,18.472784,0.73,250.2,350
-2.936951,-0.770325,0.404602,9.717976,-0.490673,-1.2209,-13.052936,-0.253238,1.78011,0.074188,1.126389,0.334091,19.5187,-16.9405,-6.633,187.9524,1.7517,-100.4166,102080.9,-33.964302,18.472784,0.73,250.2,351
-2.936951,-0.770325,0.404602,9.717976,-0.490673,-1.2209,-13.052936,-0.253238,1.78011,0.074188,1.126389,0.334091,19.4309,-17.2043,-6.7186,195.9716,2.868,-97.1607,102080.9,-33.964302,18.472784,0.73,250.2,352
-1.341873,0.066681,-0.978622,9.736492,-0.536244,-1.040937,-11.60428,0.584707,-0.043642,0.202026,1.118927,0.179626,19.4309,-17.2043,-6.7186,195.9716,2.868,-97.1607,102080.9,-33.964302,18.472784,0.73,250.2,353
-1.341873,0.066681,-0.978622,9.74972,-0.570444,-0.887658,-11.024644,-0.100591,3.023121,0.398026,0.196411,0.118912,19.5189,-17.2043,-6.5475,195.9716,2.868,-97.1607,102080.9,-33.964302,18.472784,0.73,250.2,354
-1.341873,0.066681,-0.978622,9.74972,-0.570444,-0.887658,-11.024644,-0.100591,3.023121,0.398026,0.196411,0.118912,19.5189,-17.2043,-6.5475,195.9716,2.868,-97.1607,102080.9,-33.964302,18.472784,0.73,250.2,355
-0.359711,-1.240967,2.282959,9.75192,-0.600725,-0.842377,-9.79732,-1.141339,1.700331,0.493897,0.065384,0.09227,19.6947,-17.3801,-6.4621,195.1546,3.512,-94.937,102071.9,-33.964302,18.472784,0.73,250.2,356
1.718811,-2.438141,-0.59758,9.751308,-0.625191,-0.831576,-8.973518,-1.34518,0.557017,0.723999,-0.00386,0.068832,19.7826,-17.6437,-6.3766,195.1546,3.512,-94.937,102071.9,-33.964294,18.472797,1.18,250.2,357
1.718811,-2.438141,-0.59758,9.751308,-0.625191,-0.831576,-8.973518,-1.34518,0.557017,0.723999,-0.00386,0.068832,19.7826,-17.6437,-6.3766,195.1546,3.512,-94.937,102071.9,-33.964294,18.472797,1.18,250.2,358
1.718811,-2.438141,-0.59758,9.751308,-0.625191,-0.831576,-8.973518,-1.34518,0.557017,0.723999,-0.00386,0.068832,19.7826,-17.6437,-6.3766,195.1546,3.512,-94.937,102071.9,-33.964294,18.472797,1.18,250.2,359
2.495178,-2.974869,-0.84613,9.748818,-0.655505,-0.837396,-7.703585,-2.21576,0.103037,0.820938,-0.176437,0.03688,19.5189,-18.259,-6.5477,195.1546,3.512,-94.937,102071.9,-33.964294,18.472797,1.18,250.2,360
3.339523,-2.60086,-0.938889,9.745556,-0.676208,-0.858654,-6.974795,-2.03806,-0.24277,1.265152,-0.197739,-0.131424,19.5189,-18.259,-6.5477,195.1546,3.512,-94.937,102069.9,-33.964294,18.472797,1.18,250.2,361
3.339523,-2.60086,-0.938889,9.745556,-0.676208,-0.858654,-6.974795,-2.03806,-0.24277,1.265152,-0.197739,-0.131424,19.5189,-18.259,-6.5477,195.1546,3.512,-94.937,102069.9,-33.964294,18.472797,1.18,250.2,362
4.130112,-2.888718,-0.938889,9.744324,-0.679488,-0.869964,-6.787706,-1.88489,-0.056294,1.505905,-0.338364,-0.230499,19.3432,-18.347,-6.291,194.5392,3.9539,-95.0352,102069.9,-33.964294,18.472797,1.18,250.2,363
11.648072,-3.104217,-5.456772,9.73509,-0.662728,-0.9794,-0.59042,-3.034213,-2.237457,1.666763,-0.931717,-0.405197,19.3432,-18.347,-6.291,194.5392,3.9539,-95.0352,102069.9,-33.964294,18.472797,1.18,250.2,364
11.648072,-3.104217,-5.456772,9.73509,-0.662728,-0.9794,-0.59042,-3.034213,-2.237457,1.561295,-0.835831,-0.24968,19.3432,-18.347,-6.291,194.5392,3.9539,-95.0352,102069.9,-33.964294,18.472797,1.18,250.2,365
14.026094,-0.67038,-8.394104,9.72117,-0.647893,-1.117814,4.528796,-0.462684,-8.624536,1.160767,-0.925323,0.284027,18.9917,-18.9623,-5.7777,194.5392,3.9539,-95.0352,102069.9,-33.964294,18.472797,1.18,250.2,366
26.633743,-4.912399,-13.335312,9.701508,-0.702678,-1.247949,8.952982,-1.186862,-7.436088,0.778336,-1.023315,0.466187,19.4311,-19.05,-5.6067,191.3654,4.1089,-97.33,102069.9,-33.964294,18.472797,1.18,250.2,367
26.633743,-4.912399,-13.335312,9.701508,-0.702678,-1.247949,8.952982,-1.186862,-7.436088,0.778336,-1.023315,0.466187,19.4311,-19.05,-5.6067,191.3654,4.1089,-97.33,102075.9,-33.964294,18.472797,1.18,250.2,368
33.65947,-7.678283,-9.185088,9.687656,-0.750716,-1.325191,15.306746,-3.677902,-11.901614,0.90509,0.422241,0.320236,19.3432,-19.2257,-5.6923,191.3654,4.1089,-97.33,102075.9,-33.964294,18.472797,1.18,250.2,369
34.744568,-4.95906,-3.162445,9.688626,-0.816323,-1.278487,24.972492,-6.689342,-4.965394,1.286469,0.172974,-0.292282,19.3432,-19.2257,-5.6923,191.3654,4.1089,-97.33,102075.9,-33.964294,18.472797,1.18,250.2,370
34.744568,-4.95906,-3.162445,9.688626,-0.816323,-1.278487,24.972492,-6.689342,-4.965394,1.786072,-0.38736,-0.397751,19.3432,-19.2257,-5.6923,191.3654,4.1089,-97.33,102075.9,-33.964294,18.472797,1.18,250.2,371
28.95015,-2.132156,-1.615799,9.690992,-0.789026,-1.277691,19.01994,-1.332878,-0.362259,2.006577,-0.606811,-0.479767,19.1673,-19.1378,-5.6067,191.3184,4.7749,-97.5172,102075.9,-33.964294,18.472797,1.18,250.2,372
28.95015,-2.132156,-1.615799,9.690992,-0.789026,-1.277691,19.01994,-1.332878,-0.362259,2.006577,-0.606811,-0.479767,19.1673,-19.1378,-5.6067,191.3184,4.7749,-97.5172,102075.9,-33.964294,18.472797,1.18,250.2,373
21.868423,-4.43E-04,-1.589523,9.688214,-0.770128,-1.30988,14.534128,-0.22143,0.456444,2.074753,-0.814529,-0.538361,19.1673,-19.1378,-5.1788,191.3184,4.7749,-97.5172,102075.9,-33.964294,18.472797,1.18,250.2,374
17.57074,1.217117,-2.471176,9.681102,-0.720104,-1.388571,8.851834,1.692751,-1.258868,2.188736,-0.264847,-0.610794,19.6947,-18.9619,-4.5799,186.8967,4.211,-98.1623,102099.88,-33.964294,18.472797,1.18,250.2,375
17.57074,1.217117,-2.471176,9.681102,-0.720104,-1.388571,8.851834,1.692751,-1.258868,2.085404,0.065384,-0.557541,19.6947,-18.9619,-4.5799,186.8967,4.211,-98.1623,102099.88,-33.964294,18.472797,1.18,250.2,376
14.657196,2.760285,-3.107162,9.68867,-0.63551,-1.377028,5.25509,2.842436,-1.189263,1.86171,0.242218,-0.441421,20.2221,-19.0498,-4.2377,186.8967,4.211,-98.1623,102099.88,-33.964294,18.472797,1.18,250.2,377
14.657196,2.760285,-3.107162,9.68867,-0.63551,-1.377028,5.25509,2.842436,-1.189263,1.86171,0.242218,-0.441421,20.2221,-19.0498,-4.2377,186.8967,4.211,-98.1623,102099.88,-33.964294,18.472797,1.18,250.2,378
12.628082,2.596604,-2.359299,9.699074,-0.593642,-1.321344,3.624985,3.567126,-1.34494,1.569824,0.300797,-0.357269,20.2221,-19.0498,-4.2377,186.8967,4.211,-98.1623,102099.88,-33.964294,18.472797,1.18,250.2,379
10.42006,2.094116,-2.392822,9.704228,-0.575428,-1.291216,1.830091,3.139466,-1.216218,1.100037,0.406265,-0.316788,20.4857,-19.3134,-3.8099,184.076,3.4705,-97.7579,102099.88,-33.964294,18.472797,1.18,250.2,380
10.42006,2.094116,-2.392822,9.704228,-0.575428,-1.291216,1.830091,3.139466,-1.216218,1.100037,0.406265,-0.316788,20.4857,-19.3134,-3.8099,184.076,3.4705,-97.7579,102099.88,-33.964294,18.472797,1.18,250.2,381
10.42006,2.094116,-2.392822,9.704228,-0.575428,-1.291216,1.830091,3.139466,-1.216218,1.100037,0.406265,-0.316788,20.4857,-19.3134,-3.8099,184.076,3.4705,-97.7579,102099.88,-33.964294,18.472797,1.18,250.2,382
8.678788,1.582398,-2.426971,9.717226,-0.53333,-1.208913,-0.757248,2.333573,-1.252766,0.714417,0.831299,-0.423309,20.4857,-19.3134,-3.5532,184.076,3.4705,-97.7579,102104.88,-33.964294,18.472797,1.18,250.2,383
4.980744,1.394257,-1.840576,9.73665,-0.471221,-1.070517,-3.728608,2.072665,-0.543116,0.540772,1.240372,-0.518127,20.3098,-19.3134,-3.1254,182.5319,2.7542,-96.2743,102104.88,-33.964294,18.472797,1.18,250.2,384
1.781189,1.337265,-2.03064,9.760216,-0.388926,-0.870237,-7.03254,1.913623,-1.059446,0.328781,1.409744,-0.574585,20.3098,-19.3134,-3.1254,182.5319,2.7542,-96.2743,102104.88,-33.964294,18.472797,1.18,250.2,385
-0.761063,1.18161,-1.913132,9.771134,-0.342734,-0.760169,-8.85505,1.609197,-1.143886,0.223328,1.339432,-0.582031,20.3978,-19.3134,-2.5265,182.5319,2.7542,-96.2743,102104.88,-33.964294,18.472797,1.18,250.2,386
-0.761063,1.18161,-1.913132,9.771134,-0.342734,-0.760169,-8.85505,1.609197,-1.143886,0.230789,1.167923,-0.471252,20.3978,-19.3134,-2.5265,182.5319,2.7542,-96.2743,102104.88,-33.964294,18.472797,1.18,250.2,387
-3.493301,0.960861,-2.840896,9.771134,-0.342734,-0.760169,-8.85505,1.609197,-1.143886,0.230789,1.167923,-0.471252,20.5736,-19.4891,-2.0988,181.1462,2.0028,-94.4485,102091.9,-33.964294,18.472797,1.18,250.2,388
-5.265915,1.480148,-1.994644,9.792934,-0.211754,-0.473272,-14.03322,1.284142,-2.361282,-0.060028,1.149811,-0.353012,20.5736,-19.4891,-2.0988,181.1462,2.0028,-94.4485,102091.9,-33.964294,18.472797,1.18,250.2,389
-5.265915,1.480148,-1.994644,9.792934,-0.211754,-0.473272,-14.03322,1.284142,-2.361282,-0.060028,1.149811,-0.353012,20.7495,-19.1376,-1.6712,181.1462,2.0028,-94.4485,102091.9,-33.964294,18.472797,1.18,250.2,390
-3.829742,0.712906,-2.204437,9.80071,-0.15471,-0.304224,-15.079204,1.490688,-1.780003,-0.553253,1.010269,-0.132492,20.7495,-19.1376,-1.6712,181.1462,2.0028,-94.4485,102091.9,-33.964294,18.472797,1.18,250.2,391
-1.532104,-0.921707,2.217392,9.804508,-0.12937,-0.159016,-12.768722,-0.66357,1.635856,-0.583084,0.410522,-0.184692,20.4859,-18.9619,-1.2436,182.0651,0.7559,-90.9292,102091.9,-33.964294,18.472797,1.18,250.2,392
-1.532104,-0.921707,2.217392,9.804508,-0.12937,-0.159016,-12.768722,-0.66357,1.635856,-0.583084,0.410522,-0.184692,20.4859,-18.9619,-1.2436,182.0651,0.7559,-90.9292,102091.9,-33.964294,18.472797,1.18,250.2,393
0.844391,0.285553,-0.937149,9.80554,-0.094059,-0.113657,-9.809656,-0.263294,-0.315249,-0.69812,-0.017715,-0.29335,20.4859,-18.9619,-1.2436,182.0651,0.7559,-90.9292,102091.9,-33.964294,18.472797,1.18,250.2,394
0.844391,0.285553,-0.937149,9.80554,-0.094059,-0.113657,-9.809656,-0.263294,-0.315249,-0.8004,-0.13382,-0.236893,20.31,-18.874,-0.9014,182.0651,0.7559,-90.9292,102091.9,-33.964294,18.472797,1.18,250.2,395
1.14679,1.361923,-2.262817,9.805636,-0.022432,-0.13926,-9.01031,1.422175,-2.089861,-0.78334,-0.004929,-0.180435,20.4859,-18.5225,-0.5592,182.163,0.1311,-90.8137,102089.9,-33.964294,18.472797,1.18,250.2,396
1.013153,2.431488,-2.262512,9.805636,-0.022432,-0.13926,-9.01031,1.422175,-2.089861,-0.734344,0.037674,-0.111191,20.4859,-18.5225,-0.5592,182.163,0.1311,-90.8137,102089.9,-33.964294,18.472797,1.18,250.2,397
1.013153,2.431488,-2.262512,9.805456,0.015206,-0.152323,-9.032882,2.293646,-2.274678,-0.734344,0.037674,-0.111191,20.4859,-18.2589,-0.3881,182.163,0.1311,-90.8137,102089.9,-33.964294,18.472797,1.18,250.2,398
1.013153,2.431488,-2.262512,9.805456,0.015206,-0.152323,-9.032882,2.293646,-2.274678,-0.734344,0.037674,-0.111191,20.4859,-18.2589,-0.3881,182.163,0.1311,-90.8137,102089.9,-33.964294,18.472797,1.18,250.2,399
0.955841,2.048996,-0.789261,9.80518,0.033185,-0.16659,-9.058274,2.09947,-0.6432,-0.77269,-0.179626,0.014511,20.4859,-18.2589,-0.3881,182.163,0.1311,-90.8137,102089.9,-33.964294,18.472797,1.18,250.2,400
5.501908,-0.6595,-2.788803,9.80518,0.033185,-0.16659,-9.058274,2.09947,-0.6432,-1.467255,-1.109604,0.009186,20.8374,-17.9953,-0.2171,178.8691,-0.1939,-90.9734,102089.9,-33.964294,18.472797,1.18,250.2,401
6.708115,-0.362778,-2.631027,9.800806,0.029702,-0.337214,-5.129,-0.537525,-2.329534,-1.648346,-1.461151,-0.079239,21.101,-17.7317,-0.2171,178.8691,-0.1939,-90.9734,102086.9,-33.964294,18.472797,1.18,250.2,402
6.708115,-0.362778,-2.631027,9.796436,0.036593,-0.445978,-3.003838,-0.281798,-2.066892,-1.62384,-1.776459,-0.135696,21.101,-17.7317,-0.2171,178.8691,-0.1939,-90.9734,102086.9,-33.964294,18.472797,1.18,250.2,403
12.336868,1.177795,-5.711029,9.78061,0.071014,-0.71065,1.734509,0.790007,-3.570211,-1.551407,-1.160736,-0.090942,21.101,-17.7317,-0.2171,178.8691,-0.1939,-90.9734,102086.9,-33.964294,18.472797,1.18,250.2,404
12.066544,2.003906,-6.284912,9.771228,0.089899,-0.827895,1.734509,0.790007,-3.570211,-1.595077,-1.813751,0.158325,21.1887,-17.556,-0.1314,175.2074,-0.4149,-94.1558,102086.9,-33.964294,18.472797,1.18,250.2,405
12.066544,2.003906,-6.284912,9.771228,0.089899,-0.827895,2.549257,3.318948,-2.728747,-1.730362,-1.532516,0.540756,21.1887,-17.556,-0.1314,175.2074,-0.4149,-94.1558,102086.9,-33.964294,18.472797,1.18,250.2,406
24.68715,0.319214,-9.226044,9.743852,0.084048,-1.104841,15.073952,0.315512,-7.529187,-1.730362,-1.532516,0.540756,21.1887,-17.556,-0.1314,175.2074,-0.4149,-94.1558,102086.9,-33.964294,18.472797,1.18,250.2,407
29.155746,0.769623,-2.694061,9.733886,0.037326,-1.191836,15.073952,0.315512,-7.529187,-1.509857,0.086685,0.410797,21.3644,-17.556,-0.9869,175.2074,-0.4149,-94.1558,102097.9,-33.964294,18.472797,1.18,250.2,408
29.155746,0.769623,-2.694061,9.733886,0.037326,-1.191836,22.50655,0.65708,-0.159046,-1.292541,-0.6409,0.121033,21.3644,-17.556,-0.9869,175.2074,-0.4149,-94.1558,102097.9,-33.964294,18.472797,1.18,250.2,409
30.780197,1.761688,-4.905441,9.723716,0.04357,-1.271949,22.50655,0.65708,-0.159046,-1.292541,-0.6409,0.121033,21.3644,-17.556,-0.9869,175.2074,-0.4149,-94.1558,102097.9,-33.964294,18.472797,1.18,250.2,410
30.780197,1.761688,-4.905441,9.713838,0.058816,-1.34473,21.206623,1.637385,-3.571068,-1.253128,-1.031845,0.03688,21.7159,-17.3801,-1.329,173.7849,-0.2546,-97.4525,102097.9,-33.964294,18.472797,1.18,250.2,411
25.192307,0.95224,-4.653259,9.687686,0.078896,-1.520825,14.964384,0.893953,-2.94681,-1.633423,-0.917862,0.331955,21.7159,-17.3801,-1.329,173.7849,-0.2546,-97.4525,102097.9,-33.964294,18.472797,1.18,250.2,412
25.192307,0.95224,-4.653259,9.687686,0.078896,-1.520825,14.964384,0.893953,-2.94681,-1.633423,-0.917862,0.331955,21.7159,-17.3801,-1.329,173.7849,-0.2546,-97.4525,102097.9,-33.964294,18.472797,1.18,250.2,413
20.566116,-1.503052,-3.426834,9.666116,0.061339,-1.653134,10.553524,-0.868575,-1.664339,-1.660065,-0.263794,0.556732,21.9795,-17.2043,-2.0136,173.7849,-0.2546,-97.4525,102097.9,-33.964294,18.472797,1.18,250.2,414
20.566116,-1.503052,-3.426834,9.666116,0.061339,-1.653134,10.553524,-0.868575,-1.664339,-1.660065,-0.263794,0.556732,21.9795,-17.2043,-2.0136,173.7849,-0.2546,-97.4525,102114.88,-33.964294,18.472797,1.18,250.2,415
18.63144,-2.004761,-1.004333,9.669796,-0.019541,-1.632499,8.129642,-1.874366,0.999663,-1.475769,0.388153,0.555664,21.628,-17.2043,-2.6979,177.4889,-0.3584,-99.705,102114.88,-33.964294,18.472797,1.18,250.2,416
18.63144,-2.004761,-1.004333,9.669796,-0.019541,-1.632499,8.129642,-1.874366,0.999663,-1.475769,0.388153,0.555664,21.628,-17.2043,-2.6979,177.4889,-0.3584,-99.705,102114.88,-33.964294,18.472797,1.18,250.2,417
15.0085,-1.017761,1.510162,9.6755,-0.049355,-1.597706,6.567705,-1.246253,2.372107,-0.968704,0.148468,0.534363,21.2765,-17.1164,-3.4679,177.4889,-0.3584,-99.705,102114.88,-33.964294,18.472797,1.18,250.2,418
12.185242,-0.742371,1.201691,9.680168,-0.112817,-1.565896,3.673235,-0.837178,3.061971,-0.493591,-0.163651,0.466187,21.2765,-17.1164,-3.4679,177.4889,-0.3584,-99.705,102114.88,-33.964294,18.472797,1.18,250.2,419
10.20836,-0.805771,0.193802,9.678776,-0.145,-1.571836,2.066872,-0.604121,2.866542,-0.216629,-0.29361,0.410797,21.1008,-17.0284,-4.3234,181.998,0.8472,-99.2243,102114.88,-33.964294,18.472797,1.18,250.2,420
10.20836,-0.805771,0.193802,9.678776,-0.145,-1.571836,2.066872,-0.604121,2.866542,-0.216629,-0.29361,0.410797,21.1008,-17.0284,-4.3234,181.998,0.8472,-99.2243,102114.88,-33.964294,18.472797,1.18,250.2,421
7.337036,-1.425293,-2.305435,9.678776,-0.145,-1.571836,2.066872,-0.604121,2.866542,-0.019547,0.146332,0.215851,20.8372,-17.1164,-5.0932,181.998,0.8472,-99.2243,102106.88,-33.964294,18.472797,1.18,250.2,422
7.337036,-1.425293,-2.305435,9.67095,-0.230079,-1.60941,-2.696477,-1.219986,-0.358805,-0.019547,0.146332,0.215851,20.8372,-17.1164,-5.0932,181.998,0.8472,-99.2243,102106.88,-33.964294,18.472797,1.18,250.2,423
2.120041,-1.356888,-2.425522,9.680398,-0.26071,-1.546714,-6.779995,-1.204425,-1.24923,-0.095184,0.823853,0.103989,20.7493,-17.2041,-5.6919,188.5251,1.3444,-99.4484,102106.88,-33.964294,18.472797,1.18,250.2,424
2.120041,-1.356888,-2.425522,9.680398,-0.26071,-1.546714,-6.779995,-1.204425,-1.24923,-0.095184,0.823853,0.103989,20.7493,-17.2041,-5.6919,188.5251,1.3444,-99.4484,102106.88,-33.964294,18.472797,1.18,250.2,425
-1.867279,-0.96524,-1.168732,9.704436,-0.273191,-1.385525,-11.310456,-0.847304,-0.104177,-0.176147,1.247818,0.042206,20.2219,-17.4679,-6.2908,188.5251,1.3444,-99.4484,102106.88,-33.964294,18.472797,1.18,250.2,426
-4.013656,-0.125381,-1.339355,9.729774,-0.281011,-1.192858,-14.77692,-0.173467,0.754315,-0.153778,0.995361,0.086945,20.2219,-17.4679,-6.2908,188.5251,1.3444,-99.4484,102106.88,-33.964294,18.472797,1.18,250.2,427
-4.013656,-0.125381,-1.339355,9.729774,-0.281011,-1.192858,-14.77692,-0.173467,0.754315,-0.176147,0.972977,0.105057,20.046,-17.6437,-6.4619,191.44,1.642,-96.9895,102106.88,-33.964294,18.472797,1.18,250.2,428
-2.878799,-0.993378,1.215439,9.729774,-0.281011,-1.192858,-14.77692,-0.173467,0.754315,-0.176147,0.972977,0.105057,20.046,-17.6437,-6.4619,191.44,1.642,-96.9895,102092.9,-33.964294,18.472797,1.18,250.2,429
-2.878799,-0.993378,1.215439,9.749214,-0.299758,-1.016538,-12.933386,-0.180368,-0.819556,0.08165,1.188171,0.211578,19.8704,-17.4679,-6.8041,191.44,1.642,-96.9895,102092.9,-33.964294,18.472797,1.18,250.2,430
-1.855682,-0.645431,2.026444,9.762382,-0.3381,-0.867185,-12.702064,-0.203636,3.718773,0.231842,-0.030502,0.235016,19.8704,-17.4679,-6.8041,191.44,1.642,-96.9895,102092.9,-33.964294,18.472797,1.18,250.2,431
-0.074097,-1.840485,0.916397,9.762196,-0.359946,-0.860439,-11.26727,-0.522346,2.10199,0.342636,-0.222244,0.215851,19.9583,-17.6437,-6.4619,193.7591,2.1035,-95.037,102092.9,-33.964294,18.472797,1.18,250.2,432
-0.074097,-1.840485,0.916397,9.762196,-0.359946,-0.860439,-11.26727,-0.522346,2.10199,0.342636,-0.222244,0.215851,19.9583,-17.6437,-6.4619,193.7591,2.1035,-95.037,102092.9,-33.964294,18.472797,1.18,250.2,433
1.197815,-2.846863,-0.668823,9.752864,-0.42732,-0.932446,-9.07511,-2.219652,0.770108,0.650497,-0.405472,0.105057,19.9583,-17.9075,-6.1197,193.7591,2.1035,-95.037,102092.9,-33.964294,18.472797,1.18,250.2,434
1.517105,-2.948791,-1.266678,9.752864,-0.42732,-0.932446,-9.07511,-2.219652,0.770108,0.826263,-0.241425,0.050735,19.9583,-17.9075,-6.1197,193.7591,2.1035,-95.037,102088.9,-33.964294,18.472797,1.18,250.2,435
1.517105,-2.948791,-1.266678,9.746474,-0.464265,-0.980349,-8.484952,-2.548221,-0.075956,0.826263,-0.241425,0.050735,19.8704,-17.9955,-5.8632,193.1322,2.7135,-95.7438,102088.9,-33.964294,18.472797,1.18,250.2,436
1.829712,-3.180084,-1.25499,9.740566,-0.502486,-1.019445,-8.206343,-2.540245,-0.387944,0.873138,-0.240356,0.091217,19.8704,-17.9955,-5.8632,193.1322,2.7135,-95.7438,102088.9,-33.964294,18.472797,1.18,250.2,437
2.729721,-3.072571,-0.788712,9.740566,-0.502486,-1.019445,-8.206343,-2.540245,-0.387944,0.964752,-0.255264,0.096542,19.6066,-18.0834,-5.2645,193.1322,2.7135,-95.7438,102088.9,-33.964294,18.472797,1.18,250.2,438
2.729721,-3.072571,-0.788712,9.733948,-0.545648,-1.059676,-7.264347,-2.536673,0.26491,1.138382,-0.408661,0.05925,19.6066,-18.0834,-5.2645,193.1322,2.7135,-95.7438,102088.9,-33.964294,18.472797,1.18,250.2,439
5.66153,-2.405533,-2.289642,9.733948,-0.545648,-1.059676,-7.264347,-2.536673,0.26491,1.42601,-0.839035,-0.003601,19.6066,-17.8198,-5.0079,189.4629,3.1896,-96.213,102088.9,-33.964294,18.472797,1.18,250.2,440
9.11789,-2.543381,-2.383819,9.72137,-0.582082,-1.151764,-4.15634,-1.792298,-1.051876,1.42601,-0.839035,-0.003601,19.6066,-17.8198,-5.0079,189.4629,3.1896,-96.213,102088.9,-33.964294,18.472797,1.18,250.2,441
9.11789,-2.543381,-2.383819,9.72137,-0.582082,-1.151764,-4.15634,-1.792298,-1.051876,1.42601,-0.839035,-0.003601,19.6066,-17.8198,-5.0079,189.4629,3.1896,-96.213,102088.9,-33.964294,18.472797,1.18,250.2,442
11.214524,-2.08992,-4.130478,9.711266,-0.599702,-1.225587,-2.405275,-1.868695,-0.650743,1.692322,-1.406815,-0.043015,19.7824,-17.8198,-4.5801,189.4629,3.1896,-96.213,102096.9,-33.964294,18.472797,1.18,250.2,443
11.214524,-2.08992,-4.130478,9.711266,-0.599702,-1.225587,-2.405275,-1.868695,-0.650743,1.875549,-1.920273,0.201996,19.7824,-17.8198,-4.5801,189.4629,3.1896,-96.213,102096.9,-33.964294,18.472797,1.18,250.2,444
21.44429,-4.962784,-7.29837,9.64223,-0.713423,-1.639765,9.0419,-4.316349,-2.650344,1.875549,-1.920273,0.201996,19.7824,-17.8198,-4.5801,189.4629,3.1896,-96.213,102096.9,-33.964294,18.472797,1.18,250.2,445
32.126846,-7.237625,-10.064788,9.64223,-0.713423,-1.639765,9.0419,-4.316349,-2.650344,1.622025,-1.506958,0.080551,19.7824,-18.3472,-4.3234,182.0528,4.1719,-99.6514,102096.9,-33.964294,18.472797,1.18,250.2,446
32.126846,-7.237625,-10.064788,9.593998,-0.787518,-1.872272,20.65451,-6.988075,-10.313316,1.380203,-0.628113,-0.365784,19.7824,-18.3472,-4.3234,182.0528,4.1719,-99.6514,102096.9,-33.964294,18.472797,1.18,250.2,447
30.426483,-2.63414,-6.979629,9.593998,-0.787518,-1.872272,21.466192,-3.30193,-5.64175,1.41536,-0.536499,-0.300812,19.7824,-18.3472,-4.3234,182.0528,4.1719,-99.6514,102096.9,-33.964294,18.472797,1.18,250.2,448
29.320618,-1.542953,-6.384125,9.567926,-0.796633,-1.997635,21.466192,-3.30193,-5.64175,1.494186,-0.351135,-0.245407,19.5187,-18.5228,-4.5801,182.0528,4.1719,-99.6514,102117.88,-33.964294,18.472797,1.18,250.2,449
29.320618,-1.542953,-6.384125,9.567926,-0.796633,-1.997635,17.342781,-0.126017,-2.950122,1.494186,-0.351135,-0.245407,19.5187,-18.5228,-4.5801,182.0528,4.1719,-99.6514,102117.88,-33.964294,18.472797,1.18,250.2,450
24.169601,0.057465,-3.625931,9.563,-0.809965,-2.01579,13.79383,0.922812,-1.323209,1.732803,-0.192413,-0.179367,19.4307,-18.347,-4.7512,183.5401,4.6595,-101.7931,102117.88,-33.964294,18.472797,1.18,250.2,451
21.62677,0.181015,-2.856689,9.56743,-0.827783,-1.987321,12.280052,1.027303,-0.88127,1.916031,0.156998,-0.262451,19.4307,-18.6106,-4.7512,183.5401,4.6595,-101.7931,102117.88,-33.964294,18.472797,1.18,250.2,452
21.62677,0.181015,-2.856689,9.56743,-0.827783,-1.987321,12.280052,1.027303,-0.88127,1.893662,0.39241,-0.410522,19.4307,-18.6106,-4.7512,183.5401,4.6595,-101.7931,102117.88,-33.964294,18.472797,1.18,250.2,453
19.679367,0.809662,-2.84555,9.584,-0.825268,-1.906905,10.96121,1.098234,-0.678673,1.749847,0.439285,-0.462723,19.6945,-18.9621,-4.6656,183.3309,4.8274,-101.253,102117.88,-33.96428,18.472841,2.74,70,454
16.70012,1.781281,-1.743347,9.584,-0.825268,-1.906905,10.96121,1.098234,-0.678673,1.509094,0.41478,-0.489365,19.6945,-18.9621,-4.6656,183.3309,4.8274,-101.253,102119.88,-33.96428,18.472841,2.74,70,455
16.70012,1.781281,-1.743347,9.60504,-0.793259,-1.812281,7.475725,2.496156,-0.226752,1.509094,0.41478,-0.489365,19.6066,-19.138,-4.5799,183.3309,4.8274,-101.253,102119.88,-33.96428,18.472841,2.74,70,456
13.176286,1.982971,-1.176559,9.627464,-0.739811,-1.713187,4.155131,2.671249,0.466268,1.215088,0.568176,-0.530899,19.6066,-19.138,-4.5799,183.3309,4.8274,-101.253,102119.88,-33.96428,18.472841,2.74,70,457
13.176286,1.982971,-1.176559,9.627464,-0.739811,-1.713187,4.155131,2.671249,0.466268,1.058487,0.696014,-0.48616,19.4307,-19.4015,-4.5799,185.2136,4.3265,-100.09,102119.88,-33.96428,18.472841,2.74,70,458
8.602464,1.798706,-2.530365,9.652688,-0.677969,-1.592604,0.00516,2.584866,-0.034565,0.825195,0.96553,-0.427567,19.4307,-19.4015,-4.5799,185.2136,4.3265,-100.09,102119.88,-33.96428,18.472841,2.74,70,459
8.602464,1.798706,-2.530365,9.652688,-0.677969,-1.592604,0.00516,2.584866,-0.034565,0.825195,0.96553,-0.427567,19.4307,-19.4015,-4.5799,185.2136,4.3265,-100.09,102119.88,-33.96428,18.472841,2.74,70,460
5.498764,1.454208,-3.192566,9.681398,-0.620961,-1.43364,-3.640611,2.200964,-1.00971,0.644104,1.156204,-0.403076,19.3428,-19.5772,-3.981,185.2136,4.3265,-100.09,102119.88,-33.96428,18.472841,2.74,70,461
5.498764,1.454208,-3.192566,9.681398,-0.620961,-1.43364,-3.640611,2.200964,-1.00971,0.198822,1.460877,-0.504272,19.3428,-19.5772,-3.981,185.2136,4.3265,-100.09,102108.88,-33.96428,18.472841,2.74,70,462
-0.644546,0.673203,-2.705276,9.728408,-0.514152,-1.124333,-9.200484,1.609045,-2.156008,0.198822,1.460877,-0.504272,19.3428,-19.5772,-3.981,185.2136,4.3265,-100.09,102108.88,-33.96428,18.472841,2.74,70,463
-0.644546,0.673203,-2.705276,9.757882,-0.422594,-0.880642,-9.200484,1.609045,-2.156008,0.182846,1.460877,-0.606537,19.3428,-19.4015,-3.6388,185.6985,3.0053,-96.5925,102108.88,-33.96428,18.472841,2.74,70,464
-5.628097,0.047791,-0.592682,9.757882,-0.422594,-0.880642,-13.738508,0.652463,-0.29045,0.182846,1.460877,-0.606537,19.3428,-19.4015,-3.6388,185.6985,3.0053,-96.5925,102108.88,-33.96428,18.472841,2.74,70,465
-5.628097,0.047791,-0.592682,9.77848,-0.327922,-0.666482,-15.309642,0.223442,0.237798,0.074188,1.168991,-0.574585,19.4307,-19.5774,-2.8688,185.6985,3.0053,-96.5925,102108.88,-33.96428,18.472841,2.74,70,466
-5.628097,0.047791,-0.592682,9.77848,-0.327922,-0.666482,-15.309642,0.223442,0.237798,0.074188,1.168991,-0.574585,19.4307,-19.5774,-2.8688,185.6985,3.0053,-96.5925,102108.88,-33.96428,18.472841,2.74,70,467
-4.713043,-0.063263,-1.551849,9.78522,-0.285444,-0.581714,-15.379636,1.25568,-3.469391,-0.47229,1.291504,-0.358337,19.5187,-19.3138,-2.0988,182.5184,1.668,-93.4021,102108.88,-33.96428,18.472841,2.74,70,468
-1.299942,-0.017426,0.344421,9.793888,-0.201081,-0.457954,-11.771946,0.110821,1.397737,-0.272018,-0.432098,-0.288025,19.5187,-19.3138,-2.0988,182.5184,1.668,-93.4021,102094.88,-33.96428,18.472841,2.74,70,469
-1.299942,-0.017426,0.344421,9.793888,-0.201081,-0.457954,-11.771946,0.110821,1.397737,-0.348724,-0.517319,-0.210266,19.5187,-18.6108,-1.5001,182.5184,1.668,-93.4021,102094.88,-33.96428,18.472841,2.74,70,470
-0.122131,0.34317,-0.213226,9.792488,-0.178904,-0.495552,-10.558062,0.411578,0.234998,-0.348724,-0.517319,-0.210266,19.5187,-18.6108,-1.5001,182.5184,1.668,-93.4021,102094.88,-33.96428,18.472841,2.74,70,471
2.4841,0.947723,-3.487457,9.786854,-0.143608,-0.606009,-8.500622,0.943663,-1.733734,-0.623566,-0.600418,-0.148468,19.6066,-18.5228,-0.9869,179.2711,0.8391,-93.5433,102094.88,-33.96428,18.472841,2.74,70,472
2.4841,0.947723,-3.487457,9.786854,-0.143608,-0.606009,-8.500622,0.943663,-1.733734,-0.623566,-0.600418,-0.148468,19.6066,-18.5228,-0.9869,179.2711,0.8391,-93.5433,102094.88,-33.96428,18.472841,2.74,70,473
2.939697,1.514298,-4.145386,9.783376,-0.125996,-0.663393,-7.429139,1.179139,-3.054017,-0.674698,-0.338364,-0.18576,19.7824,-18.0834,-0.6447,179.2711,0.8391,-93.5433,102094.88,-33.96428,18.472841,2.74,70,474
2.939697,1.514298,-4.145386,9.783376,-0.125996,-0.663393,-7.429139,1.179139,-3.054017,-0.674698,-0.338364,-0.18576,19.7824,-18.0834,-0.6447,179.2711,0.8391,-93.5433,102094.88,-33.96428,18.472841,2.74,70,475
2.173691,2.501145,-2.378601,9.776528,-0.054927,-0.766069,-7.683074,2.4624,-1.94197,-0.551117,-0.338364,-0.218781,20.134,-17.7319,-0.3881,175.0084,0.3209,-94.4804,102085.9,-33.96428,18.472841,2.74,70,476
2.173691,2.501145,-2.378601,9.776528,-0.054927,-0.766069,-7.683074,2.4624,-1.94197,-0.964447,-0.591888,-0.219849,20.134,-17.7319,-0.3881,175.0084,0.3209,-94.4804,102085.9,-33.96428,18.472841,2.74,70,477
2.763245,-0.217651,-0.156189,9.766964,0.022748,-0.88107,-7.855389,0.444879,0.672745,-1.368179,-0.989227,-0.235825,20.134,-17.4683,0.1251,175.0084,0.3209,-94.4804,102085.9,-33.96428,18.472841,2.74,70,478
4.743469,0.960724,-3.438858,9.751486,0.080303,-1.035605,-5.422126,0.740254,-2.304676,-1.533295,-1.126648,-0.201736,20.134,-17.4683,0.1251,175.0084,0.3209,-94.4804,102085.9,-33.96428,18.472841,2.74,70,479
4.743469,0.960724,-3.438858,9.751486,0.080303,-1.035605,-5.422126,0.740254,-2.304676,-1.533295,-1.126648,-0.201736,20.3978,-17.2045,0.1251,172.984,-0.4692,-96.0621,102085.9,-33.96428,18.472841,2.74,70,480
11.87993,1.817246,-5.944641,9.726002,0.137546,-1.247537,-0.868579,0.982789,-2.31594,-1.601471,-1.436645,-0.110123,20.3978,-17.2045,0.1251,172.984,-0.4692,-96.0621,102085.9,-33.96428,18.472841,2.74,70,481
11.87993,1.817246,-5.944641,9.69649,0.180282,-1.454633,2.545029,3.811967,-3.788201,-1.861389,-1.093628,0.164719,20.3098,-16.9407,-0.2171,172.984,-0.4692,-96.0621,102082.9,-33.96428,18.472841,2.74,70,482
16.97026,4.415772,-7.148987,9.69649,0.180282,-1.454633,2.545029,3.811967,-3.788201,-2.069122,-1.616669,0.551407,20.3098,-16.9407,-0.2171,172.984,-0.4692,-96.0621,102082.9,-33.96428,18.472841,2.74,70,483
30.642197,1.222656,-5.809662,9.6608,0.160382,-1.677384,12.279926,2.600456,-7.199819,-1.991363,-0.445953,0.600403,20.3098,-16.9407,-1.0725,173.5004,-1.0534,-98.5317,102082.9,-33.96428,18.472841,2.74,70,484
30.642197,1.222656,-5.809662,9.6608,0.160382,-1.677384,12.279926,2.600456,-7.199819,-1.991363,-0.445953,0.600403,20.3098,-16.9407,-1.0725,173.5004,-1.0534,-98.5317,102082.9,-33.96428,18.472841,2.74,70,485
33.39528,0.870682,-5.631668,9.64574,0.13831,-1.763795,22.70301,0.852199,-3.861405,-1.837967,-0.383102,0.424637,20.3098,-17.2922,-1.9279,173.5004,-1.0534,-98.5317,102082.9,-33.96428,18.472841,2.74,70,486
33.476654,2.390412,-5.234237,9.62889,0.17567,-1.850407,23.46661,2.099376,-3.123716,-1.44487,-0.689896,0.020905,20.3098,-17.2922,-1.9279,173.5004,-1.0534,-98.5317,102082.9,-33.96428,18.472841,2.74,70,487
33.476654,2.390412,-5.234237,9.62889,0.17567,-1.850407,23.46661,2.099376,-3.123716,-1.570572,-1.01799,0.168976,20.3098,-17.2922,-1.9279,173.5004,-1.0534,-98.5317,102082.9,-33.96428,18.472841,2.74,70,488
30.728622,1.916367,-3.334091,9.62889,0.17567,-1.850407,23.46661,2.099376,-3.123716,-1.796417,-1.095764,0.421448,20.3978,-17.1164,-2.6123,177.2682,-1.0264,-100.878,102108.88,-33.96428,18.472841,2.74,70,489
26.06334,0.685471,-4.770767,9.600198,0.198487,-1.991785,18.397034,1.57213,-1.761703,-1.796417,-1.095764,0.421448,20.5736,-17.0284,-2.869,177.2682,-1.0264,-100.878,102108.88,-33.96428,18.472841,2.74,70,490
22.58464,-1.096695,-4.867416,9.576188,0.169046,-2.10676,13.903192,-0.728486,-2.616146,-1.914658,-0.423584,0.730362,20.5736,-17.0284,-2.869,177.2682,-1.0264,-100.878,102108.88,-33.96428,18.472841,2.74,70,491
22.58464,-1.096695,-4.867416,9.576188,0.169046,-2.10676,13.903192,-0.728486,-2.616146,-1.674972,0.643814,0.781494,20.2221,-17.1164,-3.6388,178.7101,-0.9877,-102.4074,102108.88,-33.96428,18.472841,2.74,70,492
19.361588,-2.02565,-2.046616,9.576188,0.169046,-2.10676,13.903192,-0.728486,-2.616146,-1.674972,0.643814,0.781494,20.2221,-17.1164,-3.6388,178.7101,-0.9877,-102.4074,102108.88,-33.96428,18.472841,2.74,70,493
18.710526,-1.887711,-1.343841,9.594124,0.063042,-2.029588,9.541432,-2.185086,0.004204,-1.514114,0.870712,0.697342,20.31,-17.1164,-4.4943,178.7101,-0.9877,-102.4074,102108.88,-33.96428,18.472841,2.74,70,494
18.710526,-1.887711,-1.343841,9.594124,0.063042,-2.029588,9.541432,-2.185086,0.004204,-1.514114,0.870712,0.697342,20.31,-17.1164,-4.4943,178.7101,-0.9877,-102.4074,102108.88,-33.96428,18.472841,2.74,70,495
14.407334,-1.784332,0.450623,9.63245,-0.02655,-1.839998,4.743901,-1.771903,2.322421,-1.274429,0.616119,0.53862,20.31,-17.1164,-4.4943,178.7101,-0.9877,-102.4074,102115.88,-33.96428,18.472841,2.74,70,496
14.407334,-1.784332,0.450623,9.63245,-0.02655,-1.839998,4.743901,-1.771903,2.322421,-0.942078,0.343414,0.356461,20.3978,-16.9407,-5.0932,183.9117,0.1551,-100.8144,102115.88,-33.96428,18.472841,2.74,70,497
8.398392,-1.431061,-0.342377,9.640282,-0.047476,-1.798089,2.308336,-1.777523,2.730053,-0.820633,0.308258,0.307465,20.3978,-16.9407,-5.0932,183.9117,0.1551,-100.8144,102115.88,-33.96428,18.472841,2.74,70,498
8.398392,-1.431061,-0.342377,9.640282,-0.047476,-1.798089,2.308336,-1.777523,2.730053,-0.333801,0.704544,0.159393,20.7493,-16.9407,-5.6065,183.9117,0.1551,-100.8144,102115.88,-33.96428,18.472841,2.74,70,499
2.813172,-1.884033,-2.061401,9.658958,-0.09098,-1.693112,-4.727293,-1.554206,0.33404,-0.250717,1.049683,0.122101,20.7493,-16.9407,-5.6065,183.9117,0.1551,-100.8144,102115.88,-33.96428,18.472841,2.74,70,500
2.813172,-1.884033,-2.061401,9.658958,-0.09098,-1.693112,-4.727293,-1.554206,0.33404,-0.250717,1.049683,0.122101,20.925,-16.8528,-5.6921,187.7434,0.5316,-99.9423,102115.88,-33.96428,18.472841,2.74,70,501
2.813172,-1.884033,-2.061401,9.658958,-0.09098,-1.693112,-4.727293,-1.554206,0.33404,-0.250717,1.049683,0.122101,20.925,-16.8528,-5.6921,187.7434,0.5316,-99.9423,102115.88,-33.96428,18.472841,2.74,70,502
-0.998962,-2.024719,-2.359115,9.682292,-0.113027,-1.552692,-9.307912,-1.92407,-0.502046,-0.273087,1.308548,0.122101,20.925,-16.8528,-5.6921,187.7434,0.5316,-99.9423,102103.88,-33.96428,18.472841,2.74,70,503
-3.558029,-1.500366,-1.519897,9.682292,-0.113027,-1.552692,-9.307912,-1.92407,-0.502046,-0.484009,1.248886,0.266983,21.0129,-16.6769,-5.1788,187.7434,0.5316,-99.9423,102103.88,-33.96428,18.472841,2.74,70,504
-3.558029,-1.500366,-1.519897,9.737278,-0.172926,-1.151484,-13.585564,-0.905293,-1.98197,-0.247513,1.271256,0.30426,21.0129,-16.6769,-4.7512,188.5521,1.0104,-96.7442,102103.88,-33.96428,18.472841,2.74,70,505
-3.097763,-1.596283,2.156601,9.759726,-0.221851,-0.932159,-13.640148,-1.418839,3.34366,-0.247513,1.271256,0.30426,21.0129,-16.6769,-4.7512,188.5521,1.0104,-96.7442,102103.88,-33.96428,18.472841,2.74,70,506
-2.490951,-1.734283,2.286759,9.759726,-0.221851,-0.932159,-13.640148,-1.418839,3.34366,-0.063232,0.618256,0.253128,21.1006,-16.4133,-4.8367,188.5521,1.0104,-96.7442,102103.88,-33.96428,18.472841,2.74,70,507
-2.490951,-1.734283,2.286759,9.766912,-0.265923,-0.840895,-11.30704,-1.279337,2.13936,-0.063232,0.618256,0.253128,21.1006,-16.4133,-4.8367,188.5521,1.0104,-96.7442,102103.88,-33.96428,18.472841,2.74,70,508
-2.490951,-1.734283,2.286759,9.766912,-0.265923,-0.840895,-11.30704,-1.279337,2.13936,-0.063232,0.618256,0.253128,21.1006,-16.4133,-4.8367,188.5521,1.0104,-96.7442,102103.88,-33.96428,18.472841,2.74,70,509
0.39505,-1.791367,0.596878,9.764702,-0.29854,-0.855494,-9.7719,-1.440213,1.537606,0.139175,-0.32132,0.131683,21.2765,-16.2374,-4.6656,191.6569,1.5539,-94.9208,102093.88,-33.96428,18.472841,2.74,70,510
1.595429,-3.146728,-0.487137,9.75946,-0.321996,-0.905353,-8.78958,-2.432858,1.044071,0.80603,-0.272308,-0.084564,21.2765,-16.2374,-4.4945,191.6569,1.5539,-94.9208,102093.88,-33.96428,18.472841,2.74,70,511
1.595429,-3.146728,-0.487137,9.75946,-0.321996,-0.905353,-8.78958,-2.432858,1.044071,0.80603,-0.272308,-0.084564,21.2765,-16.2374,-4.4945,191.6569,1.5539,-94.9208,102093.88,-33.96428,18.472841,2.74,70,512
1.595429,-3.146728,-0.487137,9.75946,-0.321996,-0.905353,-8.78958,-2.432858,1.044071,0.80603,-0.272308,-0.084564,21.2765,-16.2374,-4.4945,191.6569,1.5539,-94.9208,102093.88,-33.96428,18.472841,2.74,70,513
1.586472,-3.023376,-1.132751,9.757354,-0.328591,-0.925459,-8.500006,-2.789821,0.583213,0.868881,-0.254196,-0.121841,21.2765,-16.501,-4.3234,187.0022,1.9202,-95.4181,102093.88,-33.96428,18.472841,2.74,70,514
1.586472,-3.023376,-1.132751,9.757354,-0.328591,-0.925459,-8.500006,-2.789821,0.583213,0.868881,-0.254196,-0.121841,21.2765,-16.501,-4.3234,187.0022,1.9202,-95.4181,102093.88,-33.96428,18.472841,2.74,70,515
1.291245,-2.192886,-1.22879,9.746826,-0.372003,-1.015578,-8.645794,-1.745007,-0.842445,0.790054,-0.33197,0.192413,21.2765,-16.501,-4.3234,187.0022,1.9202,-95.4181,102086.9,-33.96428,18.472841,2.74,70,516
1.291245,-2.192886,-1.22879,9.746826,-0.372003,-1.015578,-8.645794,-1.745007,-0.842445,0.790054,-0.33197,0.192413,21.2765,-16.501,-4.3234,187.0022,1.9202,-95.4181,102086.9,-33.96428,18.472841,2.74,70,517
2.256546,-2.268829,0.900436,9.739062,-0.426258,-1.067404,-8.35397,-1.84617,0.99192,0.975403,-0.385223,0.176437,21.0131,-16.7648,-3.9812,186.002,2.4912,-96.2547,102086.9,-33.96428,18.472841,2.74,70,518
9.423448,-3.474441,-1.582886,9.729438,-0.471173,-1.134207,-4.572502,-2.389685,2.202947,1.668884,-0.902954,-0.221985,20.8372,-16.8528,-4.1523,186.002,2.4912,-96.2547,102086.9,-33.96428,18.472841,2.74,70,519
9.423448,-3.474441,-1.582886,9.729438,-0.471173,-1.134207,-4.572502,-2.389685,2.202947,1.668884,-0.902954,-0.221985,20.8372,-16.8528,-4.1523,186.002,2.4912,-96.2547,102086.9,-33.96428,18.472841,2.74,70,520
14.461762,-1.515198,-7.593323,9.70557,-0.460632,-1.326696,4.259344,-0.951789,-5.896456,1.729614,-0.404404,-0.390289,21.0129,-17.1165,-4.5799,186.002,2.4912,-96.2547,102086.9,-33.96428,18.472841,2.74,70,521
14.461762,-1.515198,-7.593323,9.70557,-0.460632,-1.326696,4.259344,-0.951789,-5.896456,1.729614,-0.404404,-0.390289,21.0129,-17.1165,-4.5799,186.002,2.4912,-96.2547,102086.9,-33.96428,18.472841,2.74,70,522
18.277145,0.069138,-8.38269,9.698838,-0.455054,-1.376901,4.699396,1.587137,-4.57978,1.564499,-0.819855,0.030487,20.8372,-17.3801,-4.6656,187.1273,2.6596,-98.08,102079.9,-33.96428,18.472841,2.74,70,523
18.277145,0.069138,-8.38269,9.698838,-0.455054,-1.376901,4.699396,1.587137,-4.57978,0.883789,0.787628,-0.161255,20.8372,-17.3801,-4.6656,187.1273,2.6596,-98.08,102079.9,-33.96428,18.472841,2.74,70,524
18.277145,0.069138,-8.38269,9.698838,-0.455054,-1.376901,4.699396,1.587137,-4.57978,0.883789,0.787628,-0.161255,20.8372,-17.3801,-4.6656,187.1273,2.6596,-98.08,102079.9,-33.96428,18.472841,2.74,70,525
34.89923,-5.417297,-8.412002,9.686966,-0.523868,-1.434793,22.787807,-6.282714,-9.241692,0.896576,1.069916,-0.347671,20.9251,-17.4681,-4.5801,187.1273,2.6596,-98.08,102079.9,-33.96428,18.472841,2.74,70,526
29.4272,1.40239,-2.59201,9.686966,-0.523868,-1.434793,22.787807,-6.282714,-9.241692,1.225739,0.849411,-0.080292,20.9251,-17.4681,-4.5801,187.1273,2.6596,-98.08,102079.9,-33.96428,18.472841,2.74,70,527
29.4272,1.40239,-2.59201,9.728832,-0.477036,-1.136947,19.01141,1.8639,-1.125058,1.341858,0.504272,0.037949,20.9251,-17.4681,-4.5801,187.1273,2.6596,-98.08,102079.9,-33.96428,18.472841,2.74,70,528
25.149612,1.424759,2.426926,9.7358,-0.494745,-1.067634,14.206226,1.965511,4.020168,1.317352,-0.211594,0.031555,20.7495,-17.556,-3.9812,185.1786,2.7882,-96.6656,102086.9,-33.96428,18.472841,2.74,70,529
25.149612,1.424759,2.426926,9.7358,-0.494745,-1.067634,14.206226,1.965511,4.020168,1.317352,-0.211594,0.031555,20.7495,-17.556,-3.9812,185.1786,2.7882,-96.6656,102086.9,-33.96428,18.472841,2.74,70,530
19.024673,0.763962,-1.314117,9.733766,-0.501403,-1.08296,12.004344,1.692447,2.648342,1.439865,-0.230759,-0.104797,20.8372,-17.556,-3.7247,185.1786,2.7882,-96.6656,102086.9,-33.96428,18.472841,2.74,70,531
15.0748,1.707398,-1.789856,9.734294,-0.497608,-1.079962,6.235286,1.578897,-0.416353,1.49205,0.438217,-0.243286,20.8372,-17.556,-3.7247,185.1786,2.7882,-96.6656,102086.9,-33.96428,18.472841,2.74,70,532
15.0748,1.707398,-1.789856,9.734294,-0.497608,-1.079962,6.235286,1.578897,-0.416353,1.182068,0.991089,-0.170837,20.8372,-17.4681,-3.1258,182.3985,2.9085,-96.3307,102086.9,-33.96428,18.472841,2.74,70,533
14.176194,1.684647,-0.369507,9.7556,-0.467685,-0.883126,4.006873,2.270196,0.3881,0.916809,0.990021,-0.162323,20.8372,-17.4681,-3.1258,182.3985,2.9085,-96.3307,102086.9,-33.96428,18.472841,2.74,70,534
11.020204,1.778961,-0.730514,9.7556,-0.467685,-0.883126,4.006873,2.270196,0.3881,0.752762,0.953812,-0.163391,21.1887,-17.556,-3.0401,182.3985,2.9085,-96.3307,102086.9,-33.96428,18.472841,2.74,70,535
11.020204,1.778961,-0.730514,9.770214,-0.444739,-0.717989,1.102578,2.204087,0.086019,0.752762,0.953812,-0.163391,21.1887,-17.556,-3.0401,182.3985,2.9085,-96.3307,102079.9,-33.96428,18.472841,2.74,70,536
7.286988,1.706406,-1.105453,9.775888,-0.433947,-0.643518,-1.012361,2.164838,0.189057,0.532257,0.784424,-0.085617,21.0131,-17.3801,-2.6125,185.7438,2.5362,-93.7662,102079.9,-33.96428,18.472841,2.74,70,537
7.286988,1.706406,-1.105453,9.784424,-0.421605,-0.507652,-5.275676,2.072434,-1.66818,0.419342,0.982574,-0.005722,21.0131,-17.3801,-2.6125,185.7438,2.5362,-93.7662,102079.9,-33.96428,18.472841,2.74,70,538
3.350327,1.513992,-2.149597,9.788198,-0.420493,-0.429858,-7.291422,1.975417,-2.083824,0.336243,1.089096,0.052856,20.9251,-17.556,-2.0136,185.7438,2.5362,-93.7662,102079.9,-33.96428,18.472841,2.74,70,539
3.350327,1.513992,-2.149597,9.788198,-0.420493,-0.429858,-7.291422,1.975417,-2.083824,0.336243,1.089096,0.052856,20.9251,-17.556,-2.0136,185.7438,2.5362,-93.7662,102079.9,-33.96428,18.472841,2.74,70,540
-0.578033,0.928726,-2.525757,9.79382,-0.427656,-0.261903,-10.55407,1.521589,-2.205726,0.167938,1.0923,0.095474,21.1008,-17.7319,-1.5003,184.8164,2.4994,-91.5318,102079.9,-33.96428,18.472841,2.74,70,541
-3.151733,-0.184586,-1.609268,9.79382,-0.427656,-0.261903,-10.55407,1.521589,-2.205726,0.167938,1.0923,0.095474,21.1008,-17.7319,-1.5003,184.8164,2.4994,-91.5318,102079.9,-33.96428,18.472841,2.74,70,542
-3.918091,-0.520325,-0.643524,9.79633,-0.441431,-0.086485,-13.290462,0.293932,-1.58153,0.039032,1.063538,-0.019577,21.2767,-17.9075,-1.2436,184.8164,2.4994,-91.5318,102067.9,-33.96428,18.472841,2.74,70,543
-3.918091,-0.520325,-0.643524,9.79633,-0.441431,-0.086485,-13.290462,0.293932,-1.58153,-0.16124,0.482956,-0.183624,21.2767,-17.9075,-1.2436,184.8164,2.4994,-91.5318,102067.9,-33.96428,18.472841,2.74,70,544
-3.858673,0.090393,-1.734924,9.79633,-0.441431,-0.086485,-13.290462,0.293932,-1.58153,-0.16124,0.482956,-0.183624,21.5403,-17.9955,-0.816,182.715,2.58,-90.5058,102067.9,-33.96428,18.472841,2.74,70,545
-3.858673,0.090393,-1.734924,9.79633,-0.441431,-0.086485,-13.290462,0.293932,-1.58153,-0.16124,0.482956,-0.183624,21.5403,-17.9955,-0.816,182.715,2.58,-90.5058,102067.9,-33.96428,18.472841,2.74,70,546
-3.544098,-0.540375,0.600372,9.79682,-0.424354,0.112491,-14.676342,0.353649,-0.738772,-0.388138,0.662994,-0.18895,21.4525,-17.9955,-0.1316,182.715,2.58,-90.5058,102067.9,-33.96428,18.472841,2.74,70,547
0.531723,0.418625,-1.869202,9.798222,-0.368534,0.171559,-11.753456,-0.081202,1.293417,-0.400925,-0.523712,-0.424377,21.4525,-17.9955,-0.1316,182.715,2.58,-90.5058,102067.9,-33.96428,18.472841,2.74,70,548
1.196137,1.334656,-2.008438,9.801692,-0.30027,0.084063,-9.22491,1.17782,-2.162816,-0.586273,-0.444885,-0.430771,21.5403,-17.9955,0.1249,181.2857,2.1537,-88.9969,102067.9,-33.96428,18.472841,2.74,70,549
2.80156,1.781281,-2.90068,9.801692,-0.30027,0.084063,-9.22491,1.17782,-2.162816,-0.832352,-0.33197,-0.380707,21.5403,-17.9955,0.1249,181.2857,2.1537,-88.9969,102066.9,-33.96428,18.472841,2.74,70,550
2.80156,1.781281,-2.90068,9.803988,-0.228513,0.002007,-7.459977,1.988518,-2.96106,-0.878159,-0.245682,-0.38176,21.4523,-18.1711,0.5526,181.2857,2.1537,-88.9969,102066.9,-33.96428,18.472841,2.74,70,551
2.80156,1.781281,-2.90068,9.803988,-0.228513,0.002007,-7.459977,1.988518,-2.96106,-0.889877,-0.284027,-0.360458,21.4523,-18.1711,0.5526,181.2857,2.1537,-88.9969,102066.9,-33.96428,18.472841,2.74,70,552
2.350571,3.028,-2.361481,9.805204,-0.158682,-0.056364,-7.602926,2.947807,-2.336797,-0.889877,-0.284027,-0.360458,21.3644,-18.1711,0.5526,176.3685,0.9271,-90.3294,102066.9,-33.96428,18.472841,2.74,70,553
3.196808,3.39177,-2.745712,9.805164,-0.106627,-0.133393,-6.876117,3.51558,-2.540293,-0.89946,-0.448074,-0.103729,21.3644,-18.1711,0.5526,176.3685,0.9271,-90.3294,102066.9,-33.96427,18.472874,3.02,67.2,554
3.921631,1.894196,-1.600189,9.805164,-0.106627,-0.133393,-6.876117,3.51558,-2.540293,-0.983612,-0.340485,-0.022766,21.3644,-18.1711,0.3815,176.3685,0.9271,-90.3294,102066.9,-33.96427,18.472874,3.02,67.2,555
3.921631,1.894196,-1.600189,9.803952,-0.094382,-0.209774,-5.957698,1.85626,-1.293176,-1.419311,-0.671783,0.098663,21.3644,-18.1711,0.3815,176.3685,0.9271,-90.3294,102072.9,-33.96427,18.472874,3.02,67.2,556
3.921631,1.894196,-1.600189,9.803952,-0.094382,-0.209774,-5.957698,1.85626,-1.293176,-1.419311,-0.671783,0.098663,21.1008,-18.0832,-0.1318,178.5541,0.5514,-91.2258,102072.9,-33.96427,18.472874,3.02,67.2,557
8.100144,-0.714157,-2.421921,9.800026,-0.100386,-0.346134,-2.377529,-0.439176,-2.362901,-1.823044,-0.987106,0.033691,21.1008,-18.0832,-0.1318,178.5541,0.5514,-91.2258,102072.9,-33.96427,18.472874,3.02,67.2,558
11.518982,1.162003,-2.875976,9.791912,-0.084722,-0.53073,0.76334,-0.262562,-1.414547,-1.96579,-1.182053,-0.115448,20.925,-17.8196,-0.3029,178.5541,0.5514,-91.2258,102072.9,-33.96427,18.472874,3.02,67.2,559
11.518982,1.162003,-2.875976,9.791912,-0.084722,-0.53073,0.76334,-0.262562,-1.414547,-2.183105,-1.131973,0.174301,20.925,-17.8196,-0.3029,178.5541,0.5514,-91.2258,102072.9,-33.96427,18.472874,3.02,67.2,560
21.113525,0.322693,-3.890289,9.779204,-0.056254,-0.731026,4.373176,3.411534,-3.237896,-2.076584,-0.901886,0.384155,20.6614,-17.9075,-1.2438,179.5562,0.495,-93.1024,102072.9,-33.96427,18.472874,3.02,67.2,561
21.113525,0.322693,-3.890289,9.779204,-0.056254,-0.731026,4.373176,3.411534,-3.237896,-2.076584,-0.901886,0.384155,20.6614,-17.9075,-1.2438,179.5562,0.495,-93.1024,102072.9,-33.96427,18.472874,3.02,67.2,562
27.358427,0.807465,-4.044083,9.772198,-0.063695,-0.818832,9.840298,1.397563,-2.941857,-1.897613,-0.734634,0.330902,20.6614,-17.8196,-2.0136,179.5562,0.495,-93.1024,102083.9,-33.96427,18.472874,3.02,67.2,563
34.726563,0.885117,-2.107834,9.759912,-0.065824,-0.954028,23.510511,0.633936,-1.062176,-0.983612,-0.449142,-0.12291,20.6614,-17.8196,-2.0136,179.5562,0.495,-93.1024,102083.9,-33.96427,18.472874,3.02,67.2,564
34.726563,0.885117,-2.107834,9.759912,-0.065824,-0.954028,23.510511,0.633936,-1.062176,-0.770569,-0.777252,-0.178299,20.4857,-17.9955,-2.9545,183.332,0.3846,-95.5829,102083.9,-33.96427,18.472874,3.02,67.2,565
31.890228,1.966477,-2.489746,9.748638,-0.024636,-1.064827,21.907528,1.736458,-1.237225,-1.135956,-1.386581,0.102936,20.4857,-17.9955,-2.9545,183.332,0.3846,-95.5829,102083.9,-33.96427,18.472874,3.02,67.2,566
24.118958,-0.673431,-1.637695,9.738226,-0.016125,-1.156321,19.23351,0.503146,-0.069281,-1.135956,-1.386581,0.102936,20.398,-17.556,-3.6388,183.332,0.3846,-95.5829,102083.9,-33.96427,18.472874,3.02,67.2,567
24.118958,-0.673431,-1.637695,9.738226,-0.016125,-1.156321,19.23351,0.503146,-0.069281,-1.562057,-1.296036,0.344742,20.398,-17.556,-3.6388,183.332,0.3846,-95.5829,102083.9,-33.96427,18.472874,3.02,67.2,568
19.524979,-2.543365,-2.526321,9.696934,-0.045804,-1.462118,9.719314,-2.156158,-0.891635,-1.615326,-0.898682,0.509857,20.4859,-17.556,-4.0665,185.1329,0.0942,-96.7716,102101.88,-33.96427,18.472874,3.02,67.2,569
17.847153,-3.174286,-0.383438,9.696934,-0.045804,-1.462118,9.719314,-2.156158,-0.891635,-1.396942,-0.149811,0.640884,20.4859,-17.556,-4.0665,185.1329,0.0942,-96.7716,102101.88,-33.96427,18.472874,3.02,67.2,570
17.847153,-3.174286,-0.383438,9.684184,-0.113921,-1.540781,7.657192,-3.062995,1.036915,-1.396942,-0.149811,0.640884,20.7495,-17.4681,-4.4943,185.1329,0.0942,-96.7716,102101.88,-33.96427,18.472874,3.02,67.2,571
16.787369,-2.436767,1.596481,9.68293,-0.154347,-1.545138,7.001558,-2.49657,2.791012,-0.97084,-0.101868,0.638763,20.7495,-17.4681,-4.4943,185.1329,0.0942,-96.7716,102101.88,-33.96427,18.472874,3.02,67.2,572
16.787369,-2.436767,1.596481,9.68293,-0.154347,-1.545138,7.001558,-2.49657,2.791012,-0.568161,-0.313858,0.527969,20.8374,-17.3801,-5.0076,185.5827,0.9018,-99.0664,102101.88,-33.96427,18.472874,3.02,67.2,573
13.95018,-2.303116,0.792984,9.675624,-0.277276,-1.573477,4.12171,-2.036879,2.818635,-0.265625,-0.306396,0.412918,20.8374,-17.3801,-5.0076,185.5827,0.9018,-99.0664,102101.88,-33.96427,18.472874,3.02,67.2,574
13.95018,-2.303116,0.792984,9.675624,-0.277276,-1.573477,4.12171,-2.036879,2.818635,-0.265625,-0.306396,0.412918,20.9253,-17.3801,-5.5208,185.5827,0.9018,-99.0664,102101.88,-33.96427,18.472874,3.02,67.2,575
9.669006,-2.509994,-1.662369,9.6671,-0.342683,-1.61249,0.509278,-1.936026,1.072261,0.083771,-0.216919,0.303192,20.9253,-17.3801,-5.5208,185.5827,0.9018,-99.0664,102086.9,-33.96427,18.472874,3.02,67.2,576
6.525345,-2.474441,-3.357605,9.664784,-0.368638,-1.620636,-1.043086,-2.17616,-0.173852,0.426788,0.198532,0.094406,20.9253,-17.2043,-5.6919,188.5954,2.1543,-99.5191,102086.9,-33.96427,18.472874,3.02,67.2,577
6.525345,-2.474441,-3.357605,9.664784,-0.368638,-1.620636,-1.043086,-2.17616,-0.173852,0.513077,0.736496,0.0177,20.9253,-17.2043,-5.6919,188.5954,2.1543,-99.5191,102086.9,-33.96427,18.472874,3.02,67.2,578
6.525345,-2.474441,-3.357605,9.664784,-0.368638,-1.620636,-1.043086,-2.17616,-0.173852,0.513077,0.736496,0.0177,20.9253,-17.2043,-5.6919,188.5954,2.1543,-99.5191,102086.9,-33.96427,18.472874,3.02,67.2,579
1.687286,-1.389435,-3.43692,9.67769,-0.415028,-1.529865,-6.502755,-1.410652,-2.076136,0.43425,1.07312,0.074173,21.101,-17.2043,-6.0341,188.5954,2.1543,-99.5191,102086.9,-33.96427,18.472874,3.02,67.2,580
-2.56784,-0.50206,-2.224792,9.701616,-0.444541,-1.360669,-10.428512,-0.689281,-1.66986,0.268066,1.432114,0.18602,21.1889,-17.0284,-5.9486,190.7051,2.5981,-97.9838,102086.9,-33.96427,18.472874,3.02,67.2,581
-3.74089,-0.111572,-1.543915,9.71545,-0.463999,-1.251054,-12.148746,-0.251734,-1.178978,0.218002,1.553558,0.264847,21.1889,-17.0284,-5.9486,190.7051,2.5981,-97.9838,102072.9,-33.96427,18.472874,3.02,67.2,582
-3.74089,-0.111572,-1.543915,9.71545,-0.463999,-1.251054,-12.148746,-0.251734,-1.178978,0.218002,1.553558,0.264847,21.101,-17.3801,-5.9486,190.7051,2.5981,-97.9838,102072.9,-33.96427,18.472874,3.02,67.2,583
